submission_id,QUD,RT,age,comments,education,endTime,experiment_id,gender,languages,option1,option2,question,response,startDate,startTime,timeSpent,trial_name,trial_number
379,,9230,30,,Graduated High School,1573751026181,8,male,German,Mountains,Beach,"If you have to choose between the following two options, which one do you prefer?",Beach,Thu Nov 14 2019 18:01:24 GMT+0100 (CET),1573750884572,2.36015,forced_choice,1
379,,9330,30,,Graduated High School,1573751026181,8,male,German,Biology,Logic,"If you have to choose between the following two options, which one do you prefer?",Logic,Thu Nov 14 2019 18:01:24 GMT+0100 (CET),1573750884572,2.36015,forced_choice,2
379,,5248,30,,Graduated High School,1573751026181,8,male,German,Metal,Jazz,"If you have to choose between the following two options, which one do you prefer?",Metal,Thu Nov 14 2019 18:01:24 GMT+0100 (CET),1573750884572,2.36015,forced_choice,3
378,,5570,29,,Higher Degree,1573738279034,8,male,German,Metal,Jazz,"If you have to choose between the following two options, which one do you prefer?",Metal,Thu Nov 14 2019 14:29:09 GMT+0100 (CET),1573738149718,2.155266666666667,forced_choice,1
378,,2896,29,,Higher Degree,1573738279034,8,male,German,Biology,Logic,"If you have to choose between the following two options, which one do you prefer?",Logic,Thu Nov 14 2019 14:29:09 GMT+0100 (CET),1573738149718,2.155266666666667,forced_choice,2
378,,36236,29,,Higher Degree,1573738279034,8,male,German,Mountains,Beach,"If you have to choose between the following two options, which one do you prefer?",Beach,Thu Nov 14 2019 14:29:09 GMT+0100 (CET),1573738149718,2.155266666666667,forced_choice,3
377,,5906,20,,Graduated High School,1573680111631,8,female,german,Mountains,Beach,"If you have to choose between the following two options, which one do you prefer?",Mountains,Wed Nov 13 2019 22:20:43 GMT+0100 (Central European Standard Time),1573680043052,1.1429833333333332,forced_choice,1
377,,4767,20,,Graduated High School,1573680111631,8,female,german,Biology,Logic,"If you have to choose between the following two options, which one do you prefer?",Biology,Wed Nov 13 2019 22:20:43 GMT+0100 (Central European Standard Time),1573680043052,1.1429833333333332,forced_choice,2
377,,10427,20,,Graduated High School,1573680111631,8,female,german,Metal,Jazz,"If you have to choose between the following two options, which one do you prefer?",Jazz,Wed Nov 13 2019 22:20:43 GMT+0100 (Central European Standard Time),1573680043052,1.1429833333333332,forced_choice,3
376,,5109,21,,Graduated High School,1573650898282,8,male,"German, Spanish, Catalan",Mountains,Beach,"If you have to choose between the following two options, which one do you prefer?",Beach,Wed Nov 13 2019 14:14:11 GMT+0100 (Central European Standard Time),1573650851508,0.7795666666666666,forced_choice,1
376,,2842,21,,Graduated High School,1573650898282,8,male,"German, Spanish, Catalan",Metal,Jazz,"If you have to choose between the following two options, which one do you prefer?",Jazz,Wed Nov 13 2019 14:14:11 GMT+0100 (Central European Standard Time),1573650851508,0.7795666666666666,forced_choice,2
376,,2024,21,,Graduated High School,1573650898282,8,male,"German, Spanish, Catalan",Biology,Logic,"If you have to choose between the following two options, which one do you prefer?",Biology,Wed Nov 13 2019 14:14:11 GMT+0100 (Central European Standard Time),1573650851508,0.7795666666666666,forced_choice,3
375,,6904,23,,Graduated High School,1573650282542,8,female,German,Metal,Jazz,"If you have to choose between the following two options, which one do you prefer?",Jazz,Wed Nov 13 2019 14:03:43 GMT+0100 (CET),1573650223683,0.9809833333333333,forced_choice,1
375,,9350,23,,Graduated High School,1573650282542,8,female,German,Mountains,Beach,"If you have to choose between the following two options, which one do you prefer?",Mountains,Wed Nov 13 2019 14:03:43 GMT+0100 (CET),1573650223683,0.9809833333333333,forced_choice,2
375,,3049,23,,Graduated High School,1573650282542,8,female,German,Biology,Logic,"If you have to choose between the following two options, which one do you prefer?",Biology,Wed Nov 13 2019 14:03:43 GMT+0100 (CET),1573650223683,0.9809833333333333,forced_choice,3
374,,11610,22,,Graduated High School,1573647236045,8,male,"German, klingonic",Biology,Logic,"If you have to choose between the following two options, which one do you prefer?",Biology,Wed Nov 13 2019 13:11:46 GMT+0100 (Mitteleuropäische Normalzeit),1573647106268,2.16295,forced_choice,1
374,,2512,22,,Graduated High School,1573647236045,8,male,"German, klingonic",Metal,Jazz,"If you have to choose between the following two options, which one do you prefer?",Jazz,Wed Nov 13 2019 13:11:46 GMT+0100 (Mitteleuropäische Normalzeit),1573647106268,2.16295,forced_choice,2
374,,4860,22,,Graduated High School,1573647236045,8,male,"German, klingonic",Mountains,Beach,"If you have to choose between the following two options, which one do you prefer?",Beach,Wed Nov 13 2019 13:11:46 GMT+0100 (Mitteleuropäische Normalzeit),1573647106268,2.16295,forced_choice,3
373,,4863,19,,Graduated High School,1573645998533,8,female,german,Mountains,Beach,"If you have to choose between the following two options, which one do you prefer?",Beach,Wed Nov 13 2019 12:52:39 GMT+0100 (CET),1573645959482,0.65085,forced_choice,1
373,,4809,19,,Graduated High School,1573645998533,8,female,german,Metal,Jazz,"If you have to choose between the following two options, which one do you prefer?",Jazz,Wed Nov 13 2019 12:52:39 GMT+0100 (CET),1573645959482,0.65085,forced_choice,2
373,,2912,19,,Graduated High School,1573645998533,8,female,german,Biology,Logic,"If you have to choose between the following two options, which one do you prefer?",Logic,Wed Nov 13 2019 12:52:39 GMT+0100 (CET),1573645959482,0.65085,forced_choice,3
372,,3658,19,,Graduated High School,1573645530204,8,male,German,Metal,Jazz,"If you have to choose between the following two options, which one do you prefer?",Metal,Wed Nov 13 2019 12:44:53 GMT+0100 (Mitteleuropäische Normalzeit),1573645493680,0.6087333333333333,forced_choice,1
372,,1950,19,,Graduated High School,1573645530204,8,male,German,Mountains,Beach,"If you have to choose between the following two options, which one do you prefer?",Beach,Wed Nov 13 2019 12:44:53 GMT+0100 (Mitteleuropäische Normalzeit),1573645493680,0.6087333333333333,forced_choice,2
372,,2404,19,,Graduated High School,1573645530204,8,male,German,Biology,Logic,"If you have to choose between the following two options, which one do you prefer?",Logic,Wed Nov 13 2019 12:44:53 GMT+0100 (Mitteleuropäische Normalzeit),1573645493680,0.6087333333333333,forced_choice,3
371,,4507,19,,Graduated High School,1573641746366,8,female,German,Mountains,Beach,"If you have to choose between the following two options, which one do you prefer?",Beach,Wed Nov 13 2019 11:38:47 GMT+0100 (Mitteleuropäische Normalzeit),1573641527970,3.6399333333333335,forced_choice,1
371,,2618,19,,Graduated High School,1573641746366,8,female,German,Metal,Jazz,"If you have to choose between the following two options, which one do you prefer?",Jazz,Wed Nov 13 2019 11:38:47 GMT+0100 (Mitteleuropäische Normalzeit),1573641527970,3.6399333333333335,forced_choice,2
371,,4051,19,,Graduated High School,1573641746366,8,female,German,Biology,Logic,"If you have to choose between the following two options, which one do you prefer?",Logic,Wed Nov 13 2019 11:38:47 GMT+0100 (Mitteleuropäische Normalzeit),1573641527970,3.6399333333333335,forced_choice,3
370,,5721,20,,Graduated High School,1573639548735,8,female,German,Metal,Jazz,"If you have to choose between the following two options, which one do you prefer?",Jazz,Wed Nov 13 2019 11:04:57 GMT+0100 (Mitteleuropäische Normalzeit),1573639497009,0.8621,forced_choice,1
370,,3184,20,,Graduated High School,1573639548735,8,female,German,Biology,Logic,"If you have to choose between the following two options, which one do you prefer?",Biology,Wed Nov 13 2019 11:04:57 GMT+0100 (Mitteleuropäische Normalzeit),1573639497009,0.8621,forced_choice,2
370,,1914,20,,Graduated High School,1573639548735,8,female,German,Mountains,Beach,"If you have to choose between the following two options, which one do you prefer?",Beach,Wed Nov 13 2019 11:04:57 GMT+0100 (Mitteleuropäische Normalzeit),1573639497009,0.8621,forced_choice,3
369,,6847,23,,Higher Degree,1573639135296,8,male,German,Biology,Logic,"If you have to choose between the following two options, which one do you prefer?",Logic,Wed Nov 13 2019 10:57:55 GMT+0100 (Central European Standard Time),1573639075556,0.9956666666666667,forced_choice,1
369,,6051,23,,Higher Degree,1573639135296,8,male,German,Mountains,Beach,"If you have to choose between the following two options, which one do you prefer?",Mountains,Wed Nov 13 2019 10:57:55 GMT+0100 (Central European Standard Time),1573639075556,0.9956666666666667,forced_choice,2
369,,6265,23,,Higher Degree,1573639135296,8,male,German,Metal,Jazz,"If you have to choose between the following two options, which one do you prefer?",Metal,Wed Nov 13 2019 10:57:55 GMT+0100 (Central European Standard Time),1573639075556,0.9956666666666667,forced_choice,3
368,,5218,26,,Graduated College,1573638860559,8,female,Korean,Biology,Logic,"If you have to choose between the following two options, which one do you prefer?",Biology,Wed Nov 13 2019 10:53:53 GMT+0100 (CET),1573638833405,0.4525666666666667,forced_choice,1
368,,1932,26,,Graduated College,1573638860559,8,female,Korean,Metal,Jazz,"If you have to choose between the following two options, which one do you prefer?",Jazz,Wed Nov 13 2019 10:53:53 GMT+0100 (CET),1573638833405,0.4525666666666667,forced_choice,2
368,,2028,26,,Graduated College,1573638860559,8,female,Korean,Mountains,Beach,"If you have to choose between the following two options, which one do you prefer?",Beach,Wed Nov 13 2019 10:53:53 GMT+0100 (CET),1573638833405,0.4525666666666667,forced_choice,3
367,,5497,24,,Graduated College,1573634275933,8,male,"English, German ",Biology,Logic,"If you have to choose between the following two options, which one do you prefer?",Biology,Wed Nov 13 2019 09:37:03 GMT+0100 (Central European Standard Time),1573634223012,0.8820166666666667,forced_choice,1
367,,4457,24,,Graduated College,1573634275933,8,male,"English, German ",Mountains,Beach,"If you have to choose between the following two options, which one do you prefer?",Beach,Wed Nov 13 2019 09:37:03 GMT+0100 (Central European Standard Time),1573634223012,0.8820166666666667,forced_choice,2
367,,1740,24,,Graduated College,1573634275933,8,male,"English, German ",Metal,Jazz,"If you have to choose between the following two options, which one do you prefer?",Jazz,Wed Nov 13 2019 09:37:03 GMT+0100 (Central European Standard Time),1573634223012,0.8820166666666667,forced_choice,3
366,,7036,22,,Higher Degree,1573636072050,8,female,Russian,Biology,Logic,"If you have to choose between the following two options, which one do you prefer?",Biology,"Wed Nov 13 2019 10:06:18 GMT+0100 (Центральная Европа, стандартное время)",1573635978817,1.5538833333333333,forced_choice,1
366,,4129,22,,Higher Degree,1573636072050,8,female,Russian,Metal,Jazz,"If you have to choose between the following two options, which one do you prefer?",Jazz,"Wed Nov 13 2019 10:06:18 GMT+0100 (Центральная Европа, стандартное время)",1573635978817,1.5538833333333333,forced_choice,2
366,,4825,22,,Higher Degree,1573636072050,8,female,Russian,Mountains,Beach,"If you have to choose between the following two options, which one do you prefer?",Beach,"Wed Nov 13 2019 10:06:18 GMT+0100 (Центральная Европа, стандартное время)",1573635978817,1.5538833333333333,forced_choice,3
365,,4954,22,,Graduated High School,1573635990479,8,female,German,Mountains,Beach,"If you have to choose between the following two options, which one do you prefer?",Beach,Wed Nov 13 2019 10:06:00 GMT+0100 (Mitteleuropäische Normalzeit),1573635960894,0.4930833333333333,forced_choice,1
365,,1799,22,,Graduated High School,1573635990479,8,female,German,Biology,Logic,"If you have to choose between the following two options, which one do you prefer?",Biology,Wed Nov 13 2019 10:06:00 GMT+0100 (Mitteleuropäische Normalzeit),1573635960894,0.4930833333333333,forced_choice,2
365,,1942,22,,Graduated High School,1573635990479,8,female,German,Metal,Jazz,"If you have to choose between the following two options, which one do you prefer?",Metal,Wed Nov 13 2019 10:06:00 GMT+0100 (Mitteleuropäische Normalzeit),1573635960894,0.4930833333333333,forced_choice,3
364,,98099,21,,Graduated High School,1573631001488,8,male,German,Mountains,Beach,"If you have to choose between the following two options, which one do you prefer?",Mountains,Wed Nov 13 2019 08:38:25 GMT+0100 (CET),1573630705904,4.9264,forced_choice,1
364,,24119,21,,Graduated High School,1573631001488,8,male,German,Biology,Logic,"If you have to choose between the following two options, which one do you prefer?",Logic,Wed Nov 13 2019 08:38:25 GMT+0100 (CET),1573630705904,4.9264,forced_choice,2
364,,2866,21,,Graduated High School,1573631001488,8,male,German,Metal,Jazz,"If you have to choose between the following two options, which one do you prefer?",Jazz,Wed Nov 13 2019 08:38:25 GMT+0100 (CET),1573630705904,4.9264,forced_choice,3
363,,17275,20,,Graduated College,1573629800504,8,female,German,Metal,Jazz,"If you have to choose between the following two options, which one do you prefer?",Metal,Wed Nov 13 2019 08:22:03 GMT+0100 (Mitteleuropäische Normalzeit),1573629723160,1.2890666666666666,forced_choice,1
363,,21772,20,,Graduated College,1573629800504,8,female,German,Mountains,Beach,"If you have to choose between the following two options, which one do you prefer?",Mountains,Wed Nov 13 2019 08:22:03 GMT+0100 (Mitteleuropäische Normalzeit),1573629723160,1.2890666666666666,forced_choice,2
363,,10280,20,,Graduated College,1573629800504,8,female,German,Biology,Logic,"If you have to choose between the following two options, which one do you prefer?",Logic,Wed Nov 13 2019 08:22:03 GMT+0100 (Mitteleuropäische Normalzeit),1573629723160,1.2890666666666666,forced_choice,3
362,,11645,21,,Graduated High School,1573624154572,8,female,German,Mountains,Beach,"If you have to choose between the following two options, which one do you prefer?",Mountains,Wed Nov 13 2019 06:48:18 GMT+0100 (Mitteleuropäische Zeit),1573624098579,0.9332166666666667,forced_choice,1
362,,5574,21,,Graduated High School,1573624154572,8,female,German,Metal,Jazz,"If you have to choose between the following two options, which one do you prefer?",Jazz,Wed Nov 13 2019 06:48:18 GMT+0100 (Mitteleuropäische Zeit),1573624098579,0.9332166666666667,forced_choice,2
362,,3656,21,,Graduated High School,1573624154572,8,female,German,Biology,Logic,"If you have to choose between the following two options, which one do you prefer?",Biology,Wed Nov 13 2019 06:48:18 GMT+0100 (Mitteleuropäische Zeit),1573624098579,0.9332166666666667,forced_choice,3
361,,4661,20,,Graduated High School,1573601814205,8,other,German,Mountains,Beach,"If you have to choose between the following two options, which one do you prefer?",Beach,Wed Nov 13 2019 00:35:56 GMT+0100 (Mitteleuropäische Normalzeit),1573601756868,0.9556166666666667,forced_choice,1
361,,3640,20,,Graduated High School,1573601814205,8,other,German,Metal,Jazz,"If you have to choose between the following two options, which one do you prefer?",Jazz,Wed Nov 13 2019 00:35:56 GMT+0100 (Mitteleuropäische Normalzeit),1573601756868,0.9556166666666667,forced_choice,2
361,,9071,20,,Graduated High School,1573601814205,8,other,German,Biology,Logic,"If you have to choose between the following two options, which one do you prefer?",Biology,Wed Nov 13 2019 00:35:56 GMT+0100 (Mitteleuropäische Normalzeit),1573601756868,0.9556166666666667,forced_choice,3
360,,5807,23,,Graduated High School,1573601012298,8,,Arabic,Mountains,Beach,"If you have to choose between the following two options, which one do you prefer?",Beach,Wed Nov 13 2019 00:22:25 GMT+0100 (CET),1573600945206,1.1182,forced_choice,1
360,,5374,23,,Graduated High School,1573601012298,8,,Arabic,Biology,Logic,"If you have to choose between the following two options, which one do you prefer?",Biology,Wed Nov 13 2019 00:22:25 GMT+0100 (CET),1573600945206,1.1182,forced_choice,2
360,,6572,23,,Graduated High School,1573601012298,8,,Arabic,Metal,Jazz,"If you have to choose between the following two options, which one do you prefer?",Jazz,Wed Nov 13 2019 00:22:25 GMT+0100 (CET),1573600945206,1.1182,forced_choice,3
359,,6656,29,,,1573598071619,8,female,german,Biology,Logic,"If you have to choose between the following two options, which one do you prefer?",Logic,Tue Nov 12 2019 23:33:25 GMT+0100 (Mitteleuropäische Normalzeit),1573598005669,1.0991666666666666,forced_choice,1
359,,4503,29,,,1573598071619,8,female,german,Mountains,Beach,"If you have to choose between the following two options, which one do you prefer?",Beach,Tue Nov 12 2019 23:33:25 GMT+0100 (Mitteleuropäische Normalzeit),1573598005669,1.0991666666666666,forced_choice,2
359,,5520,29,,,1573598071619,8,female,german,Metal,Jazz,"If you have to choose between the following two options, which one do you prefer?",Jazz,Tue Nov 12 2019 23:33:25 GMT+0100 (Mitteleuropäische Normalzeit),1573598005669,1.0991666666666666,forced_choice,3
358,,8921,22,,Graduated High School,1573597881191,8,male,German,Metal,Jazz,"If you have to choose between the following two options, which one do you prefer?",Jazz,Tue Nov 12 2019 23:30:24 GMT+0100 (Mitteleuropäische Zeit),1573597824466,0.9454166666666667,forced_choice,1
358,,7039,22,,Graduated High School,1573597881191,8,male,German,Biology,Logic,"If you have to choose between the following two options, which one do you prefer?",Biology,Tue Nov 12 2019 23:30:24 GMT+0100 (Mitteleuropäische Zeit),1573597824466,0.9454166666666667,forced_choice,2
358,,8904,22,,Graduated High School,1573597881191,8,male,German,Mountains,Beach,"If you have to choose between the following two options, which one do you prefer?",Beach,Tue Nov 12 2019 23:30:24 GMT+0100 (Mitteleuropäische Zeit),1573597824466,0.9454166666666667,forced_choice,3
357,,13908,22,,Graduated High School,1573597839080,8,male,german,Biology,Logic,"If you have to choose between the following two options, which one do you prefer?",Biology,Tue Nov 12 2019 23:29:32 GMT+0100 (Mitteleuropäische Normalzeit),1573597773002,1.1013,forced_choice,1
357,,8480,22,,Graduated High School,1573597839080,8,male,german,Metal,Jazz,"If you have to choose between the following two options, which one do you prefer?",Jazz,Tue Nov 12 2019 23:29:32 GMT+0100 (Mitteleuropäische Normalzeit),1573597773002,1.1013,forced_choice,2
357,,7865,22,,Graduated High School,1573597839080,8,male,german,Mountains,Beach,"If you have to choose between the following two options, which one do you prefer?",Mountains,Tue Nov 12 2019 23:29:32 GMT+0100 (Mitteleuropäische Normalzeit),1573597773002,1.1013,forced_choice,3
356,,5923,22,,,1573597796327,8,male,German,Metal,Jazz,"If you have to choose between the following two options, which one do you prefer?",Metal,Tue Nov 12 2019 23:28:41 GMT+0100 (GMT+01:00),1573597721584,1.2457166666666666,forced_choice,1
356,,4512,22,,,1573597796327,8,male,German,Mountains,Beach,"If you have to choose between the following two options, which one do you prefer?",Mountains,Tue Nov 12 2019 23:28:41 GMT+0100 (GMT+01:00),1573597721584,1.2457166666666666,forced_choice,2
356,,3361,22,,,1573597796327,8,male,German,Biology,Logic,"If you have to choose between the following two options, which one do you prefer?",Logic,Tue Nov 12 2019 23:28:41 GMT+0100 (GMT+01:00),1573597721584,1.2457166666666666,forced_choice,3
355,,4704,20,,Graduated High School,1573597663071,8,female,German,Mountains,Beach,"If you have to choose between the following two options, which one do you prefer?",Beach,Tue Nov 12 2019 23:27:00 GMT+0100 (Central European Standard Time),1573597620523,0.7091333333333333,forced_choice,1
355,,6079,20,,Graduated High School,1573597663071,8,female,German,Metal,Jazz,"If you have to choose between the following two options, which one do you prefer?",Metal,Tue Nov 12 2019 23:27:00 GMT+0100 (Central European Standard Time),1573597620523,0.7091333333333333,forced_choice,2
355,,3216,20,,Graduated High School,1573597663071,8,female,German,Biology,Logic,"If you have to choose between the following two options, which one do you prefer?",Logic,Tue Nov 12 2019 23:27:00 GMT+0100 (Central European Standard Time),1573597620523,0.7091333333333333,forced_choice,3
354,,5542,21,,Graduated High School,1573595051586,8,female,german,Biology,Logic,"If you have to choose between the following two options, which one do you prefer?",Biology,Tue Nov 12 2019 22:43:26 GMT+0100 (Mitteleuropäische Normalzeit),1573595006670,0.7486,forced_choice,1
354,,1832,21,,Graduated High School,1573595051586,8,female,german,Metal,Jazz,"If you have to choose between the following two options, which one do you prefer?",Metal,Tue Nov 12 2019 22:43:26 GMT+0100 (Mitteleuropäische Normalzeit),1573595006670,0.7486,forced_choice,2
354,,3657,21,,Graduated High School,1573595051586,8,female,german,Mountains,Beach,"If you have to choose between the following two options, which one do you prefer?",Mountains,Tue Nov 12 2019 22:43:26 GMT+0100 (Mitteleuropäische Normalzeit),1573595006670,0.7486,forced_choice,3
353,,6567,20,,Graduated High School,1573593035963,8,female,German,Biology,Logic,"If you have to choose between the following two options, which one do you prefer?",Logic,Tue Nov 12 2019 22:09:40 GMT+0100 (Mitteleuropäische Normalzeit),1573592980513,0.9241666666666667,forced_choice,1
353,,4678,20,,Graduated High School,1573593035963,8,female,German,Metal,Jazz,"If you have to choose between the following two options, which one do you prefer?",Metal,Tue Nov 12 2019 22:09:40 GMT+0100 (Mitteleuropäische Normalzeit),1573592980513,0.9241666666666667,forced_choice,2
353,,4193,20,,Graduated High School,1573593035963,8,female,German,Mountains,Beach,"If you have to choose between the following two options, which one do you prefer?",Mountains,Tue Nov 12 2019 22:09:40 GMT+0100 (Mitteleuropäische Normalzeit),1573592980513,0.9241666666666667,forced_choice,3
352,,6977,21,,Graduated High School,1573592017121,8,female,German,Metal,Jazz,"If you have to choose between the following two options, which one do you prefer?",Jazz,Tue Nov 12 2019 21:51:48 GMT+0100 (CET),1573591908039,1.8180333333333334,forced_choice,1
352,,13138,21,,Graduated High School,1573592017121,8,female,German,Mountains,Beach,"If you have to choose between the following two options, which one do you prefer?",Mountains,Tue Nov 12 2019 21:51:48 GMT+0100 (CET),1573591908039,1.8180333333333334,forced_choice,2
352,,2887,21,,Graduated High School,1573592017121,8,female,German,Biology,Logic,"If you have to choose between the following two options, which one do you prefer?",Biology,Tue Nov 12 2019 21:51:48 GMT+0100 (CET),1573591908039,1.8180333333333334,forced_choice,3
351,,7246,20,,Graduated High School,1573590648403,8,female,german,Metal,Jazz,"If you have to choose between the following two options, which one do you prefer?",Jazz,Tue Nov 12 2019 21:26:43 GMT+0100 (Mitteleuropäische Normalzeit),1573590403215,4.0864666666666665,forced_choice,1
351,,4333,20,,Graduated High School,1573590648403,8,female,german,Mountains,Beach,"If you have to choose between the following two options, which one do you prefer?",Beach,Tue Nov 12 2019 21:26:43 GMT+0100 (Mitteleuropäische Normalzeit),1573590403215,4.0864666666666665,forced_choice,2
351,,8437,20,,Graduated High School,1573590648403,8,female,german,Biology,Logic,"If you have to choose between the following two options, which one do you prefer?",Biology,Tue Nov 12 2019 21:26:43 GMT+0100 (Mitteleuropäische Normalzeit),1573590403215,4.0864666666666665,forced_choice,3
350,,10931,21,,Graduated High School,1573590513073,8,male,German,Mountains,Beach,"If you have to choose between the following two options, which one do you prefer?",Mountains,Tue Nov 12 2019 21:27:19 GMT+0100 (Central European Standard Time),1573590439195,1.2313,forced_choice,1
350,,4011,21,,Graduated High School,1573590513073,8,male,German,Biology,Logic,"If you have to choose between the following two options, which one do you prefer?",Biology,Tue Nov 12 2019 21:27:19 GMT+0100 (Central European Standard Time),1573590439195,1.2313,forced_choice,2
350,,3870,21,,Graduated High School,1573590513073,8,male,German,Metal,Jazz,"If you have to choose between the following two options, which one do you prefer?",Jazz,Tue Nov 12 2019 21:27:19 GMT+0100 (Central European Standard Time),1573590439195,1.2313,forced_choice,3
349,,4037,20,,Graduated High School,1573590117976,8,male,German,Metal,Jazz,"If you have to choose between the following two options, which one do you prefer?",Metal,Tue Nov 12 2019 21:20:45 GMT+0100 (Central European Standard Time),1573590045913,1.20105,forced_choice,1
349,,1980,20,,Graduated High School,1573590117976,8,male,German,Mountains,Beach,"If you have to choose between the following two options, which one do you prefer?",Mountains,Tue Nov 12 2019 21:20:45 GMT+0100 (Central European Standard Time),1573590045913,1.20105,forced_choice,2
349,,2228,20,,Graduated High School,1573590117976,8,male,German,Biology,Logic,"If you have to choose between the following two options, which one do you prefer?",Biology,Tue Nov 12 2019 21:20:45 GMT+0100 (Central European Standard Time),1573590045913,1.20105,forced_choice,3
348,,8376,35,,Graduated College,1573587808307,8,female,Arabic,Biology,Logic,"If you have to choose between the following two options, which one do you prefer?",Biology,Tue Nov 12 2019 20:42:17 GMT+0100 (Central European Standard Time),1573587737343,1.1827333333333334,forced_choice,1
348,,4014,35,,Graduated College,1573587808307,8,female,Arabic,Mountains,Beach,"If you have to choose between the following two options, which one do you prefer?",Mountains,Tue Nov 12 2019 20:42:17 GMT+0100 (Central European Standard Time),1573587737343,1.1827333333333334,forced_choice,2
348,,3596,35,,Graduated College,1573587808307,8,female,Arabic,Metal,Jazz,"If you have to choose between the following two options, which one do you prefer?",Jazz,Tue Nov 12 2019 20:42:17 GMT+0100 (Central European Standard Time),1573587737343,1.1827333333333334,forced_choice,3
347,,6416,21,,Graduated High School,1573587248947,8,male,Italian,Mountains,Beach,"If you have to choose between the following two options, which one do you prefer?",Beach,Tue Nov 12 2019 20:33:12 GMT+0100 (Central European Standard Time),1573587192827,0.9353333333333333,forced_choice,1
347,,3538,21,,Graduated High School,1573587248947,8,male,Italian,Biology,Logic,"If you have to choose between the following two options, which one do you prefer?",Logic,Tue Nov 12 2019 20:33:12 GMT+0100 (Central European Standard Time),1573587192827,0.9353333333333333,forced_choice,2
347,,5252,21,,Graduated High School,1573587248947,8,male,Italian,Metal,Jazz,"If you have to choose between the following two options, which one do you prefer?",Jazz,Tue Nov 12 2019 20:33:12 GMT+0100 (Central European Standard Time),1573587192827,0.9353333333333333,forced_choice,3
346,,4222,21,,Graduated High School,1573586558542,8,male,German,Metal,Jazz,"If you have to choose between the following two options, which one do you prefer?",Metal,Tue Nov 12 2019 20:21:42 GMT+0100 (Central European Standard Time),1573586502924,0.9269666666666667,forced_choice,1
346,,10685,21,,Graduated High School,1573586558542,8,male,German,Biology,Logic,"If you have to choose between the following two options, which one do you prefer?",Biology,Tue Nov 12 2019 20:21:42 GMT+0100 (Central European Standard Time),1573586502924,0.9269666666666667,forced_choice,2
346,,10979,21,,Graduated High School,1573586558542,8,male,German,Mountains,Beach,"If you have to choose between the following two options, which one do you prefer?",Mountains,Tue Nov 12 2019 20:21:42 GMT+0100 (Central European Standard Time),1573586502924,0.9269666666666667,forced_choice,3
345,,5905,23,Have I won a prize? I've never won a prize :/,Graduated High School,1573586145624,8,male,German,Metal,Jazz,"If you have to choose between the following two options, which one do you prefer?",Jazz,Tue Nov 12 2019 20:13:42 GMT+0100 (GMT+01:00),1573586022543,2.05135,forced_choice,1
345,,2728,23,Have I won a prize? I've never won a prize :/,Graduated High School,1573586145624,8,male,German,Biology,Logic,"If you have to choose between the following two options, which one do you prefer?",Logic,Tue Nov 12 2019 20:13:42 GMT+0100 (GMT+01:00),1573586022543,2.05135,forced_choice,2
345,,2152,23,Have I won a prize? I've never won a prize :/,Graduated High School,1573586145624,8,male,German,Mountains,Beach,"If you have to choose between the following two options, which one do you prefer?",Mountains,Tue Nov 12 2019 20:13:42 GMT+0100 (GMT+01:00),1573586022543,2.05135,forced_choice,3
344,,9727,21,,,1573584445559,8,male,,Mountains,Beach,"If you have to choose between the following two options, which one do you prefer?",Mountains,Tue Nov 12 2019 19:46:11 GMT+0100 (Mitteleuropäische Normalzeit),1573584371953,1.2267666666666666,forced_choice,1
344,,2991,21,,,1573584445559,8,male,,Metal,Jazz,"If you have to choose between the following two options, which one do you prefer?",Jazz,Tue Nov 12 2019 19:46:11 GMT+0100 (Mitteleuropäische Normalzeit),1573584371953,1.2267666666666666,forced_choice,2
344,,17919,21,,,1573584445559,8,male,,Biology,Logic,"If you have to choose between the following two options, which one do you prefer?",Logic,Tue Nov 12 2019 19:46:11 GMT+0100 (Mitteleuropäische Normalzeit),1573584371953,1.2267666666666666,forced_choice,3
343,,4285,19,,Graduated High School,1573584191916,8,female,german,Metal,Jazz,"If you have to choose between the following two options, which one do you prefer?",Jazz,Tue Nov 12 2019 19:42:14 GMT+0100 (Mitteleuropäische Normalzeit),1573584134514,0.9567,forced_choice,1
343,,9512,19,,Graduated High School,1573584191916,8,female,german,Biology,Logic,"If you have to choose between the following two options, which one do you prefer?",Logic,Tue Nov 12 2019 19:42:14 GMT+0100 (Mitteleuropäische Normalzeit),1573584134514,0.9567,forced_choice,2
343,,4259,19,,Graduated High School,1573584191916,8,female,german,Mountains,Beach,"If you have to choose between the following two options, which one do you prefer?",Mountains,Tue Nov 12 2019 19:42:14 GMT+0100 (Mitteleuropäische Normalzeit),1573584134514,0.9567,forced_choice,3
342,,7184,31,,Graduated High School,1573582561350,8,female,German,Mountains,Beach,"If you have to choose between the following two options, which one do you prefer?",Beach,Tue Nov 12 2019 19:14:39 GMT+0100 (Mitteleuropäische Normalzeit),1573582479826,1.3587333333333333,forced_choice,1
342,,6253,31,,Graduated High School,1573582561350,8,female,German,Metal,Jazz,"If you have to choose between the following two options, which one do you prefer?",Metal,Tue Nov 12 2019 19:14:39 GMT+0100 (Mitteleuropäische Normalzeit),1573582479826,1.3587333333333333,forced_choice,2
342,,4374,31,,Graduated High School,1573582561350,8,female,German,Biology,Logic,"If you have to choose between the following two options, which one do you prefer?",Biology,Tue Nov 12 2019 19:14:39 GMT+0100 (Mitteleuropäische Normalzeit),1573582479826,1.3587333333333333,forced_choice,3
341,,3978,19,,Graduated High School,1573581769771,8,female,German,Biology,Logic,"If you have to choose between the following two options, which one do you prefer?",Biology,Tue Nov 12 2019 19:02:09 GMT+0100 (Mitteleuropäische Normalzeit),1573581729072,0.6783166666666667,forced_choice,1
341,,4593,19,,Graduated High School,1573581769771,8,female,German,Metal,Jazz,"If you have to choose between the following two options, which one do you prefer?",Jazz,Tue Nov 12 2019 19:02:09 GMT+0100 (Mitteleuropäische Normalzeit),1573581729072,0.6783166666666667,forced_choice,2
341,,4369,19,,Graduated High School,1573581769771,8,female,German,Mountains,Beach,"If you have to choose between the following two options, which one do you prefer?",Mountains,Tue Nov 12 2019 19:02:09 GMT+0100 (Mitteleuropäische Normalzeit),1573581729072,0.6783166666666667,forced_choice,3
340,,4997,19,,Graduated High School,1573581662910,8,female,Italian,Metal,Jazz,"If you have to choose between the following two options, which one do you prefer?",Jazz,Tue Nov 12 2019 18:59:58 GMT+0100 (ora solare Europa occidentale),1573581598671,1.07065,forced_choice,1
340,,4918,19,,Graduated High School,1573581662910,8,female,Italian,Biology,Logic,"If you have to choose between the following two options, which one do you prefer?",Biology,Tue Nov 12 2019 18:59:58 GMT+0100 (ora solare Europa occidentale),1573581598671,1.07065,forced_choice,2
340,,3061,19,,Graduated High School,1573581662910,8,female,Italian,Mountains,Beach,"If you have to choose between the following two options, which one do you prefer?",Mountains,Tue Nov 12 2019 18:59:58 GMT+0100 (ora solare Europa occidentale),1573581598671,1.07065,forced_choice,3
339,,6714,19,,Graduated High School,1573581581850,8,female,German,Mountains,Beach,"If you have to choose between the following two options, which one do you prefer?",Mountains,Tue Nov 12 2019 18:58:50 GMT+0100 (Mitteleuropäische Normalzeit),1573581530021,0.8638166666666667,forced_choice,1
339,,5758,19,,Graduated High School,1573581581850,8,female,German,Metal,Jazz,"If you have to choose between the following two options, which one do you prefer?",Metal,Tue Nov 12 2019 18:58:50 GMT+0100 (Mitteleuropäische Normalzeit),1573581530021,0.8638166666666667,forced_choice,2
339,,2737,19,,Graduated High School,1573581581850,8,female,German,Biology,Logic,"If you have to choose between the following two options, which one do you prefer?",Biology,Tue Nov 12 2019 18:58:50 GMT+0100 (Mitteleuropäische Normalzeit),1573581530021,0.8638166666666667,forced_choice,3
338,,5248,24,,Graduated High School,1573581528536,8,male,German,Biology,Logic,"If you have to choose between the following two options, which one do you prefer?",Logic,Tue Nov 12 2019 18:20:55 GMT+0100 (Mitteleuropäische Normalzeit),1573579255440,37.884933333333336,forced_choice,1
338,,2759,24,,Graduated High School,1573581528536,8,male,German,Mountains,Beach,"If you have to choose between the following two options, which one do you prefer?",Beach,Tue Nov 12 2019 18:20:55 GMT+0100 (Mitteleuropäische Normalzeit),1573579255440,37.884933333333336,forced_choice,2
338,,21496,24,,Graduated High School,1573581528536,8,male,German,Metal,Jazz,"If you have to choose between the following two options, which one do you prefer?",Jazz,Tue Nov 12 2019 18:20:55 GMT+0100 (Mitteleuropäische Normalzeit),1573579255440,37.884933333333336,forced_choice,3
337,,7942,19,,Graduated College,1573581364640,8,female,russian,Mountains,Beach,"If you have to choose between the following two options, which one do you prefer?",Mountains,Tue Nov 12 2019 18:55:00 GMT+0100 (Central European Standard Time),1573581300572,1.0678,forced_choice,1
337,,14349,19,,Graduated College,1573581364640,8,female,russian,Metal,Jazz,"If you have to choose between the following two options, which one do you prefer?",Metal,Tue Nov 12 2019 18:55:00 GMT+0100 (Central European Standard Time),1573581300572,1.0678,forced_choice,2
337,,12277,19,,Graduated College,1573581364640,8,female,russian,Biology,Logic,"If you have to choose between the following two options, which one do you prefer?",Logic,Tue Nov 12 2019 18:55:00 GMT+0100 (Central European Standard Time),1573581300572,1.0678,forced_choice,3
336,,2962,19,,Graduated High School,1573581023378,8,female,Russian,Metal,Jazz,"If you have to choose between the following two options, which one do you prefer?",Jazz,Tue Nov 12 2019 18:49:52 GMT+0100 (Mitteleuropäische Normalzeit),1573580992070,0.5218,forced_choice,1
336,,4836,19,,Graduated High School,1573581023378,8,female,Russian,Biology,Logic,"If you have to choose between the following two options, which one do you prefer?",Logic,Tue Nov 12 2019 18:49:52 GMT+0100 (Mitteleuropäische Normalzeit),1573580992070,0.5218,forced_choice,2
336,,4354,19,,Graduated High School,1573581023378,8,female,Russian,Mountains,Beach,"If you have to choose between the following two options, which one do you prefer?",Beach,Tue Nov 12 2019 18:49:52 GMT+0100 (Mitteleuropäische Normalzeit),1573580992070,0.5218,forced_choice,3
335,,10561,19,,Graduated High School,1573580030285,8,male,german,Biology,Logic,"If you have to choose between the following two options, which one do you prefer?",Biology,Tue Nov 12 2019 18:32:48 GMT+0100 (Mitteleuropäische Normalzeit),1573579968933,1.0225333333333333,forced_choice,1
335,,9234,19,,Graduated High School,1573580030285,8,male,german,Mountains,Beach,"If you have to choose between the following two options, which one do you prefer?",Mountains,Tue Nov 12 2019 18:32:48 GMT+0100 (Mitteleuropäische Normalzeit),1573579968933,1.0225333333333333,forced_choice,2
335,,7754,19,,Graduated High School,1573580030285,8,male,german,Metal,Jazz,"If you have to choose between the following two options, which one do you prefer?",Metal,Tue Nov 12 2019 18:32:48 GMT+0100 (Mitteleuropäische Normalzeit),1573579968933,1.0225333333333333,forced_choice,3
334,,4557,29,,Graduated College,1573579807254,8,female,rus,Biology,Logic,"If you have to choose between the following two options, which one do you prefer?",Biology,Tue Nov 12 2019 18:28:52 GMT+0100 (Mitteleuropäische Normalzeit),1573579732336,1.2486333333333333,forced_choice,1
334,,3949,29,,Graduated College,1573579807254,8,female,rus,Mountains,Beach,"If you have to choose between the following two options, which one do you prefer?",Beach,Tue Nov 12 2019 18:28:52 GMT+0100 (Mitteleuropäische Normalzeit),1573579732336,1.2486333333333333,forced_choice,2
334,,4065,29,,Graduated College,1573579807254,8,female,rus,Metal,Jazz,"If you have to choose between the following two options, which one do you prefer?",Jazz,Tue Nov 12 2019 18:28:52 GMT+0100 (Mitteleuropäische Normalzeit),1573579732336,1.2486333333333333,forced_choice,3
333,,6682,,,,1573579495379,8,,,Mountains,Beach,"If you have to choose between the following two options, which one do you prefer?",Beach,Tue Nov 12 2019 18:23:41 GMT+0100 (Mitteleuropäische Normalzeit),1573579421445,1.2322333333333333,forced_choice,1
333,,28707,,,,1573579495379,8,,,Biology,Logic,"If you have to choose between the following two options, which one do you prefer?",Biology,Tue Nov 12 2019 18:23:41 GMT+0100 (Mitteleuropäische Normalzeit),1573579421445,1.2322333333333333,forced_choice,2
333,,2157,,,,1573579495379,8,,,Metal,Jazz,"If you have to choose between the following two options, which one do you prefer?",Metal,Tue Nov 12 2019 18:23:41 GMT+0100 (Mitteleuropäische Normalzeit),1573579421445,1.2322333333333333,forced_choice,3
332,,4632,19,,Graduated High School,1573579201071,8,female,"german, english",Mountains,Beach,"If you have to choose between the following two options, which one do you prefer?",Beach,Tue Nov 12 2019 18:19:21 GMT+0100 (CET),1573579161289,0.6630333333333334,forced_choice,1
332,,3513,19,,Graduated High School,1573579201071,8,female,"german, english",Metal,Jazz,"If you have to choose between the following two options, which one do you prefer?",Jazz,Tue Nov 12 2019 18:19:21 GMT+0100 (CET),1573579161289,0.6630333333333334,forced_choice,2
332,,1666,19,,Graduated High School,1573579201071,8,female,"german, english",Biology,Logic,"If you have to choose between the following two options, which one do you prefer?",Biology,Tue Nov 12 2019 18:19:21 GMT+0100 (CET),1573579161289,0.6630333333333334,forced_choice,3
331,,10248,20,,Graduated High School,1573578616478,8,male,"Italian, French",Biology,Logic,"If you have to choose between the following two options, which one do you prefer?",Logic,Tue Nov 12 2019 18:09:15 GMT+0100 (Ora standard dell’Europa centrale),1573578555328,1.0191666666666668,forced_choice,1
331,,4241,20,,Graduated High School,1573578616478,8,male,"Italian, French",Metal,Jazz,"If you have to choose between the following two options, which one do you prefer?",Jazz,Tue Nov 12 2019 18:09:15 GMT+0100 (Ora standard dell’Europa centrale),1573578555328,1.0191666666666668,forced_choice,2
331,,3337,20,,Graduated High School,1573578616478,8,male,"Italian, French",Mountains,Beach,"If you have to choose between the following two options, which one do you prefer?",Beach,Tue Nov 12 2019 18:09:15 GMT+0100 (Ora standard dell’Europa centrale),1573578555328,1.0191666666666668,forced_choice,3
330,,18017,20,,Graduated High School,1573578556024,8,female,Deutsch,Biology,Logic,"If you have to choose between the following two options, which one do you prefer?",Biology,Tue Nov 12 2019 18:07:03 GMT+0100 (Central European Standard Time),1573578423307,2.21195,forced_choice,1
330,,2502,20,,Graduated High School,1573578556024,8,female,Deutsch,Mountains,Beach,"If you have to choose between the following two options, which one do you prefer?",Mountains,Tue Nov 12 2019 18:07:03 GMT+0100 (Central European Standard Time),1573578423307,2.21195,forced_choice,2
330,,48416,20,,Graduated High School,1573578556024,8,female,Deutsch,Metal,Jazz,"If you have to choose between the following two options, which one do you prefer?",Metal,Tue Nov 12 2019 18:07:03 GMT+0100 (Central European Standard Time),1573578423307,2.21195,forced_choice,3
329,,14224,19,"Joa gute Fragen, weiter so!",Graduated High School,1573578521038,8,other,German,Biology,Logic,"If you have to choose between the following two options, which one do you prefer?",Logic,Tue Nov 12 2019 18:06:30 GMT+0100 (Central European Standard Time),1573578390172,2.1811,forced_choice,1
329,,9288,19,"Joa gute Fragen, weiter so!",Graduated High School,1573578521038,8,other,German,Mountains,Beach,"If you have to choose between the following two options, which one do you prefer?",Mountains,Tue Nov 12 2019 18:06:30 GMT+0100 (Central European Standard Time),1573578390172,2.1811,forced_choice,2
329,,5558,19,"Joa gute Fragen, weiter so!",Graduated High School,1573578521038,8,other,German,Metal,Jazz,"If you have to choose between the following two options, which one do you prefer?",Metal,Tue Nov 12 2019 18:06:30 GMT+0100 (Central European Standard Time),1573578390172,2.1811,forced_choice,3
328,,5525,21,,Graduated College,1573578678935,8,female,,Biology,Logic,"If you have to choose between the following two options, which one do you prefer?",Biology,Tue Nov 12 2019 18:10:39 GMT+0100 (Central European Standard Time),1573578639366,0.6594833333333333,forced_choice,1
328,,4258,21,,Graduated College,1573578678935,8,female,,Mountains,Beach,"If you have to choose between the following two options, which one do you prefer?",Mountains,Tue Nov 12 2019 18:10:39 GMT+0100 (Central European Standard Time),1573578639366,0.6594833333333333,forced_choice,2
328,,2679,21,,Graduated College,1573578678935,8,female,,Metal,Jazz,"If you have to choose between the following two options, which one do you prefer?",Metal,Tue Nov 12 2019 18:10:39 GMT+0100 (Central European Standard Time),1573578639366,0.6594833333333333,forced_choice,3
327,,7100,20,,Graduated High School,1573578199049,8,male,German,Metal,Jazz,"If you have to choose between the following two options, which one do you prefer?",Jazz,Tue Nov 12 2019 18:02:19 GMT+0100 (Mitteleuropäische Normalzeit),1573578139047,1.0000333333333333,forced_choice,1
327,,4169,20,,Graduated High School,1573578199049,8,male,German,Mountains,Beach,"If you have to choose between the following two options, which one do you prefer?",Beach,Tue Nov 12 2019 18:02:19 GMT+0100 (Mitteleuropäische Normalzeit),1573578139047,1.0000333333333333,forced_choice,2
327,,11135,20,,Graduated High School,1573578199049,8,male,German,Biology,Logic,"If you have to choose between the following two options, which one do you prefer?",Biology,Tue Nov 12 2019 18:02:19 GMT+0100 (Mitteleuropäische Normalzeit),1573578139047,1.0000333333333333,forced_choice,3
326,,4411,20,,Graduated High School,1573578165122,8,female,German,Mountains,Beach,"If you have to choose between the following two options, which one do you prefer?",Beach,Tue Nov 12 2019 18:02:07 GMT+0100 (Mitteleuropäische Normalzeit),1573578127311,0.6301833333333333,forced_choice,1
326,,2351,20,,Graduated High School,1573578165122,8,female,German,Metal,Jazz,"If you have to choose between the following two options, which one do you prefer?",Metal,Tue Nov 12 2019 18:02:07 GMT+0100 (Mitteleuropäische Normalzeit),1573578127311,0.6301833333333333,forced_choice,2
326,,2051,20,,Graduated High School,1573578165122,8,female,German,Biology,Logic,"If you have to choose between the following two options, which one do you prefer?",Biology,Tue Nov 12 2019 18:02:07 GMT+0100 (Mitteleuropäische Normalzeit),1573578127311,0.6301833333333333,forced_choice,3
325,,4650,21,,Graduated High School,1573577413333,8,female,"polish, german",Mountains,Beach,"If you have to choose between the following two options, which one do you prefer?",Mountains,Tue Nov 12 2019 16:35:03 GMT+0100 (Mitteleuropäische Normalzeit),1573572903361,75.1662,forced_choice,1
325,,7016,21,,Graduated High School,1573577413333,8,female,"polish, german",Biology,Logic,"If you have to choose between the following two options, which one do you prefer?",Logic,Tue Nov 12 2019 16:35:03 GMT+0100 (Mitteleuropäische Normalzeit),1573572903361,75.1662,forced_choice,2
325,,3628,21,,Graduated High School,1573577413333,8,female,"polish, german",Metal,Jazz,"If you have to choose between the following two options, which one do you prefer?",Jazz,Tue Nov 12 2019 16:35:03 GMT+0100 (Mitteleuropäische Normalzeit),1573572903361,75.1662,forced_choice,3
324,,9105,24,,Graduated High School,1573576469228,8,male,german,Metal,Jazz,"If you have to choose between the following two options, which one do you prefer?",Metal,Tue Nov 12 2019 17:33:13 GMT+0100 (Mitteleuropäische Normalzeit),1573576393635,1.2598833333333332,forced_choice,1
324,,3589,24,,Graduated High School,1573576469228,8,male,german,Mountains,Beach,"If you have to choose between the following two options, which one do you prefer?",Beach,Tue Nov 12 2019 17:33:13 GMT+0100 (Mitteleuropäische Normalzeit),1573576393635,1.2598833333333332,forced_choice,2
324,,7159,24,,Graduated High School,1573576469228,8,male,german,Biology,Logic,"If you have to choose between the following two options, which one do you prefer?",Biology,Tue Nov 12 2019 17:33:13 GMT+0100 (Mitteleuropäische Normalzeit),1573576393635,1.2598833333333332,forced_choice,3
323,,5536,25,,Graduated High School,1573576198248,8,male,nepali,Metal,Jazz,"If you have to choose between the following two options, which one do you prefer?",Jazz,Tue Nov 12 2019 17:28:58 GMT+0100 (Mitteleuropäische Normalzeit),1573576138894,0.9892333333333333,forced_choice,1
323,,6622,25,,Graduated High School,1573576198248,8,male,nepali,Biology,Logic,"If you have to choose between the following two options, which one do you prefer?",Biology,Tue Nov 12 2019 17:28:58 GMT+0100 (Mitteleuropäische Normalzeit),1573576138894,0.9892333333333333,forced_choice,2
323,,7396,25,,Graduated High School,1573576198248,8,male,nepali,Mountains,Beach,"If you have to choose between the following two options, which one do you prefer?",Mountains,Tue Nov 12 2019 17:28:58 GMT+0100 (Mitteleuropäische Normalzeit),1573576138894,0.9892333333333333,forced_choice,3
322,,4288,20,,Graduated High School,1573576172783,8,female,German,Mountains,Beach,"If you have to choose between the following two options, which one do you prefer?",Mountains,Tue Nov 12 2019 17:06:43 GMT+0100 (Central European Standard Time),1573574803806,22.816283333333335,forced_choice,1
322,,2611,20,,Graduated High School,1573576172783,8,female,German,Metal,Jazz,"If you have to choose between the following two options, which one do you prefer?",Metal,Tue Nov 12 2019 17:06:43 GMT+0100 (Central European Standard Time),1573574803806,22.816283333333335,forced_choice,2
322,,3796,20,,Graduated High School,1573576172783,8,female,German,Biology,Logic,"If you have to choose between the following two options, which one do you prefer?",Biology,Tue Nov 12 2019 17:06:43 GMT+0100 (Central European Standard Time),1573574803806,22.816283333333335,forced_choice,3
321,,7939,20,,Graduated High School,1573576060830,8,female,german,Biology,Logic,"If you have to choose between the following two options, which one do you prefer?",Biology,Tue Nov 12 2019 17:26:40 GMT+0100 (Central European Standard Time),1573576000354,1.0079333333333333,forced_choice,1
321,,5135,20,,Graduated High School,1573576060830,8,female,german,Metal,Jazz,"If you have to choose between the following two options, which one do you prefer?",Metal,Tue Nov 12 2019 17:26:40 GMT+0100 (Central European Standard Time),1573576000354,1.0079333333333333,forced_choice,2
321,,5380,20,,Graduated High School,1573576060830,8,female,german,Mountains,Beach,"If you have to choose between the following two options, which one do you prefer?",Mountains,Tue Nov 12 2019 17:26:40 GMT+0100 (Central European Standard Time),1573576000354,1.0079333333333333,forced_choice,3
320,,12433,21,,Graduated High School,1573575333035,8,male,german,Biology,Logic,"If you have to choose between the following two options, which one do you prefer?",Logic,Tue Nov 12 2019 17:13:12 GMT+0100 (Mitteleuropäische Normalzeit),1573575192058,2.3496166666666665,forced_choice,1
320,,11056,21,,Graduated High School,1573575333035,8,male,german,Mountains,Beach,"If you have to choose between the following two options, which one do you prefer?",Beach,Tue Nov 12 2019 17:13:12 GMT+0100 (Mitteleuropäische Normalzeit),1573575192058,2.3496166666666665,forced_choice,2
320,,3395,21,,Graduated High School,1573575333035,8,male,german,Metal,Jazz,"If you have to choose between the following two options, which one do you prefer?",Jazz,Tue Nov 12 2019 17:13:12 GMT+0100 (Mitteleuropäische Normalzeit),1573575192058,2.3496166666666665,forced_choice,3
319,,5256,22,,Graduated High School,1573574630730,8,male,German,Metal,Jazz,"If you have to choose between the following two options, which one do you prefer?",Jazz,Tue Nov 12 2019 17:01:58 GMT+0100 (Central European Standard Time),1573574518244,1.8747666666666667,forced_choice,1
319,,8074,22,,Graduated High School,1573574630730,8,male,German,Mountains,Beach,"If you have to choose between the following two options, which one do you prefer?",Beach,Tue Nov 12 2019 17:01:58 GMT+0100 (Central European Standard Time),1573574518244,1.8747666666666667,forced_choice,2
319,,3528,22,,Graduated High School,1573574630730,8,male,German,Biology,Logic,"If you have to choose between the following two options, which one do you prefer?",Logic,Tue Nov 12 2019 17:01:58 GMT+0100 (Central European Standard Time),1573574518244,1.8747666666666667,forced_choice,3
318,,3401,25,,Graduated High School,1573574364117,8,male,German,Biology,Logic,"If you have to choose between the following two options, which one do you prefer?",Biology,Tue Nov 12 2019 16:42:28 GMT+0100 (Mitteleuropäische Normalzeit),1573573348022,16.934916666666666,forced_choice,1
318,,2423,25,,Graduated High School,1573574364117,8,male,German,Mountains,Beach,"If you have to choose between the following two options, which one do you prefer?",Mountains,Tue Nov 12 2019 16:42:28 GMT+0100 (Mitteleuropäische Normalzeit),1573573348022,16.934916666666666,forced_choice,2
318,,1921,25,,Graduated High School,1573574364117,8,male,German,Metal,Jazz,"If you have to choose between the following two options, which one do you prefer?",Jazz,Tue Nov 12 2019 16:42:28 GMT+0100 (Mitteleuropäische Normalzeit),1573573348022,16.934916666666666,forced_choice,3
317,,4359,,,,1573574324593,8,,,Metal,Jazz,"If you have to choose between the following two options, which one do you prefer?",Jazz,Tue Nov 12 2019 16:58:03 GMT+0100 (Central European Standard Time),1573574283616,0.68295,forced_choice,1
317,,3800,,,,1573574324593,8,,,Mountains,Beach,"If you have to choose between the following two options, which one do you prefer?",Beach,Tue Nov 12 2019 16:58:03 GMT+0100 (Central European Standard Time),1573574283616,0.68295,forced_choice,2
317,,8192,,,,1573574324593,8,,,Biology,Logic,"If you have to choose between the following two options, which one do you prefer?",Biology,Tue Nov 12 2019 16:58:03 GMT+0100 (Central European Standard Time),1573574283616,0.68295,forced_choice,3
316,,5875,21,,Graduated High School,1573573885744,8,male,"German, Russian",Biology,Logic,"If you have to choose between the following two options, which one do you prefer?",Biology,Tue Nov 12 2019 16:50:37 GMT+0100 (Central European Standard Time),1573573837536,0.8034666666666667,forced_choice,1
316,,1833,21,,Graduated High School,1573573885744,8,male,"German, Russian",Metal,Jazz,"If you have to choose between the following two options, which one do you prefer?",Metal,Tue Nov 12 2019 16:50:37 GMT+0100 (Central European Standard Time),1573573837536,0.8034666666666667,forced_choice,2
316,,1923,21,,Graduated High School,1573573885744,8,male,"German, Russian",Mountains,Beach,"If you have to choose between the following two options, which one do you prefer?",Mountains,Tue Nov 12 2019 16:50:37 GMT+0100 (Central European Standard Time),1573573837536,0.8034666666666667,forced_choice,3
315,,20567,18,,Graduated High School,1573573054964,8,male,German,Biology,Logic,"If you have to choose between the following two options, which one do you prefer?",Biology,Tue Nov 12 2019 16:35:45 GMT+0100 (Central European Standard Time),1573572945884,1.818,forced_choice,1
315,,4400,18,,Graduated High School,1573573054964,8,male,German,Mountains,Beach,"If you have to choose between the following two options, which one do you prefer?",Mountains,Tue Nov 12 2019 16:35:45 GMT+0100 (Central European Standard Time),1573572945884,1.818,forced_choice,2
315,,7614,18,,Graduated High School,1573573054964,8,male,German,Metal,Jazz,"If you have to choose between the following two options, which one do you prefer?",Jazz,Tue Nov 12 2019 16:35:45 GMT+0100 (Central European Standard Time),1573572945884,1.818,forced_choice,3
314,,7192,21,,Graduated High School,1573572891857,8,female,german,Biology,Logic,"If you have to choose between the following two options, which one do you prefer?",Biology,Tue Nov 12 2019 16:33:51 GMT+0100 (CET),1573572831947,0.9985,forced_choice,1
314,,3743,21,,Graduated High School,1573572891857,8,female,german,Metal,Jazz,"If you have to choose between the following two options, which one do you prefer?",Jazz,Tue Nov 12 2019 16:33:51 GMT+0100 (CET),1573572831947,0.9985,forced_choice,2
314,,2149,21,,Graduated High School,1573572891857,8,female,german,Mountains,Beach,"If you have to choose between the following two options, which one do you prefer?",Mountains,Tue Nov 12 2019 16:33:51 GMT+0100 (CET),1573572831947,0.9985,forced_choice,3
313,,11857,24,,Graduated College,1573572778759,8,female,Spanish,Biology,Logic,"If you have to choose between the following two options, which one do you prefer?",Biology,Tue Nov 12 2019 16:32:00 GMT+0100 (hora estándar de Europa central),1573572720229,0.9755,forced_choice,1
313,,4629,24,,Graduated College,1573572778759,8,female,Spanish,Metal,Jazz,"If you have to choose between the following two options, which one do you prefer?",Jazz,Tue Nov 12 2019 16:32:00 GMT+0100 (hora estándar de Europa central),1573572720229,0.9755,forced_choice,2
313,,3391,24,,Graduated College,1573572778759,8,female,Spanish,Mountains,Beach,"If you have to choose between the following two options, which one do you prefer?",Mountains,Tue Nov 12 2019 16:32:00 GMT+0100 (hora estándar de Europa central),1573572720229,0.9755,forced_choice,3
312,,6013,21,,Graduated High School,1573572228882,8,female,"German, Polish",Metal,Jazz,"If you have to choose between the following two options, which one do you prefer?",Metal,Tue Nov 12 2019 16:22:49 GMT+0100 (Mitteleuropäische Zeit),1573572169308,0.9929,forced_choice,1
312,,2619,21,,Graduated High School,1573572228882,8,female,"German, Polish",Biology,Logic,"If you have to choose between the following two options, which one do you prefer?",Biology,Tue Nov 12 2019 16:22:49 GMT+0100 (Mitteleuropäische Zeit),1573572169308,0.9929,forced_choice,2
312,,5367,21,,Graduated High School,1573572228882,8,female,"German, Polish",Mountains,Beach,"If you have to choose between the following two options, which one do you prefer?",Beach,Tue Nov 12 2019 16:22:49 GMT+0100 (Mitteleuropäische Zeit),1573572169308,0.9929,forced_choice,3
311,,9768,20,,Graduated High School,1573571562461,8,male,,Biology,Logic,"If you have to choose between the following two options, which one do you prefer?",Logic,Tue Nov 12 2019 16:10:46 GMT+0100 (CET),1573571446011,1.9408333333333334,forced_choice,1
311,,12648,20,,Graduated High School,1573571562461,8,male,,Mountains,Beach,"If you have to choose between the following two options, which one do you prefer?",Mountains,Tue Nov 12 2019 16:10:46 GMT+0100 (CET),1573571446011,1.9408333333333334,forced_choice,2
311,,5163,20,,Graduated High School,1573571562461,8,male,,Metal,Jazz,"If you have to choose between the following two options, which one do you prefer?",Jazz,Tue Nov 12 2019 16:10:46 GMT+0100 (CET),1573571446011,1.9408333333333334,forced_choice,3
310,,6771,24,4,Graduated High School,1573571505747,8,male,german,Biology,Logic,"If you have to choose between the following two options, which one do you prefer?",Biology,Tue Nov 12 2019 16:11:04 GMT+0100 (CET),1573571464162,0.6930833333333334,forced_choice,1
310,,2904,24,4,Graduated High School,1573571505747,8,male,german,Metal,Jazz,"If you have to choose between the following two options, which one do you prefer?",Jazz,Tue Nov 12 2019 16:11:04 GMT+0100 (CET),1573571464162,0.6930833333333334,forced_choice,2
310,,4348,24,4,Graduated High School,1573571505747,8,male,german,Mountains,Beach,"If you have to choose between the following two options, which one do you prefer?",Mountains,Tue Nov 12 2019 16:11:04 GMT+0100 (CET),1573571464162,0.6930833333333334,forced_choice,3
309,,5103,21,,Graduated High School,1573571492237,8,female,German ,Biology,Logic,"If you have to choose between the following two options, which one do you prefer?",Logic,Tue Nov 12 2019 15:10:49 GMT+0000 (Greenwich Mean Time),1573571449989,0.7041333333333334,forced_choice,1
309,,5062,21,,Graduated High School,1573571492237,8,female,German ,Metal,Jazz,"If you have to choose between the following two options, which one do you prefer?",Metal,Tue Nov 12 2019 15:10:49 GMT+0000 (Greenwich Mean Time),1573571449989,0.7041333333333334,forced_choice,2
309,,2897,21,,Graduated High School,1573571492237,8,female,German ,Mountains,Beach,"If you have to choose between the following two options, which one do you prefer?",Mountains,Tue Nov 12 2019 15:10:49 GMT+0000 (Greenwich Mean Time),1573571449989,0.7041333333333334,forced_choice,3
308,,8420,22,,Graduated High School,1573571400320,8,female,"turkish, german",Mountains,Beach,"If you have to choose between the following two options, which one do you prefer?",Mountains,Tue Nov 12 2019 16:08:58 GMT+0100 (Mitteleuropäische Normalzeit),1573571338956,1.0227333333333333,forced_choice,1
308,,4484,22,,Graduated High School,1573571400320,8,female,"turkish, german",Metal,Jazz,"If you have to choose between the following two options, which one do you prefer?",Jazz,Tue Nov 12 2019 16:08:58 GMT+0100 (Mitteleuropäische Normalzeit),1573571338956,1.0227333333333333,forced_choice,2
308,,3945,22,,Graduated High School,1573571400320,8,female,"turkish, german",Biology,Logic,"If you have to choose between the following two options, which one do you prefer?",Biology,Tue Nov 12 2019 16:08:58 GMT+0100 (Mitteleuropäische Normalzeit),1573571338956,1.0227333333333333,forced_choice,3
307,,3625,,,,1573571237454,8,,,Mountains,Beach,"If you have to choose between the following two options, which one do you prefer?",Mountains,Tue Nov 12 2019 16:06:57 GMT+0100 (CET),1573571217221,0.33721666666666666,forced_choice,1
307,,3390,,,,1573571237454,8,,,Biology,Logic,"If you have to choose between the following two options, which one do you prefer?",Logic,Tue Nov 12 2019 16:06:57 GMT+0100 (CET),1573571217221,0.33721666666666666,forced_choice,2
307,,1931,,,,1573571237454,8,,,Metal,Jazz,"If you have to choose between the following two options, which one do you prefer?",Jazz,Tue Nov 12 2019 16:06:57 GMT+0100 (CET),1573571217221,0.33721666666666666,forced_choice,3
306,,6374,22,,Graduated High School,1573570844952,8,male,German,Biology,Logic,"If you have to choose between the following two options, which one do you prefer?",Logic,Tue Nov 12 2019 15:58:55 GMT+0100 (Mitteleuropäische Normalzeit),1573570735078,1.8312333333333333,forced_choice,1
306,,2206,22,,Graduated High School,1573570844952,8,male,German,Metal,Jazz,"If you have to choose between the following two options, which one do you prefer?",Jazz,Tue Nov 12 2019 15:58:55 GMT+0100 (Mitteleuropäische Normalzeit),1573570735078,1.8312333333333333,forced_choice,2
306,,5130,22,,Graduated High School,1573570844952,8,male,German,Mountains,Beach,"If you have to choose between the following two options, which one do you prefer?",Mountains,Tue Nov 12 2019 15:58:55 GMT+0100 (Mitteleuropäische Normalzeit),1573570735078,1.8312333333333333,forced_choice,3
305,,8425,34,,Graduated College,1573570737640,8,male,german,Metal,Jazz,"If you have to choose between the following two options, which one do you prefer?",Metal,Tue Nov 12 2019 15:58:05 GMT+0100 (Mitteleuropäische Normalzeit),1573570685469,0.8695166666666667,forced_choice,1
305,,4909,34,,Graduated College,1573570737640,8,male,german,Mountains,Beach,"If you have to choose between the following two options, which one do you prefer?",Beach,Tue Nov 12 2019 15:58:05 GMT+0100 (Mitteleuropäische Normalzeit),1573570685469,0.8695166666666667,forced_choice,2
305,,4470,34,,Graduated College,1573570737640,8,male,german,Biology,Logic,"If you have to choose between the following two options, which one do you prefer?",Logic,Tue Nov 12 2019 15:58:05 GMT+0100 (Mitteleuropäische Normalzeit),1573570685469,0.8695166666666667,forced_choice,3
304,,5927,19,,Graduated High School,1573570416554,8,male,"German, English",Mountains,Beach,"If you have to choose between the following two options, which one do you prefer?",Beach,Tue Nov 12 2019 15:52:50 GMT+0100 (Mitteleuropäische Normalzeit),1573570370165,0.77315,forced_choice,1
304,,1536,19,,Graduated High School,1573570416554,8,male,"German, English",Metal,Jazz,"If you have to choose between the following two options, which one do you prefer?",Jazz,Tue Nov 12 2019 15:52:50 GMT+0100 (Mitteleuropäische Normalzeit),1573570370165,0.77315,forced_choice,2
304,,2045,19,,Graduated High School,1573570416554,8,male,"German, English",Biology,Logic,"If you have to choose between the following two options, which one do you prefer?",Logic,Tue Nov 12 2019 15:52:50 GMT+0100 (Mitteleuropäische Normalzeit),1573570370165,0.77315,forced_choice,3
303,,5911,,,,1573570269972,8,,,Mountains,Beach,"If you have to choose between the following two options, which one do you prefer?",Beach,Tue Nov 12 2019 15:50:36 GMT+0100 (Mitteleuropäische Normalzeit),1573570236289,0.5613833333333333,forced_choice,1
303,,4303,,,,1573570269972,8,,,Biology,Logic,"If you have to choose between the following two options, which one do you prefer?",Logic,Tue Nov 12 2019 15:50:36 GMT+0100 (Mitteleuropäische Normalzeit),1573570236289,0.5613833333333333,forced_choice,2
303,,4847,,,,1573570269972,8,,,Metal,Jazz,"If you have to choose between the following two options, which one do you prefer?",Metal,Tue Nov 12 2019 15:50:36 GMT+0100 (Mitteleuropäische Normalzeit),1573570236289,0.5613833333333333,forced_choice,3
302,,5388,19,,Graduated High School,1573570265032,8,female,German,Metal,Jazz,"If you have to choose between the following two options, which one do you prefer?",Jazz,Tue Nov 12 2019 15:50:22 GMT+0100 (Central European Standard Time),1573570222868,0.7027333333333333,forced_choice,1
302,,5612,19,,Graduated High School,1573570265032,8,female,German,Biology,Logic,"If you have to choose between the following two options, which one do you prefer?",Logic,Tue Nov 12 2019 15:50:22 GMT+0100 (Central European Standard Time),1573570222868,0.7027333333333333,forced_choice,2
302,,5890,19,,Graduated High School,1573570265032,8,female,German,Mountains,Beach,"If you have to choose between the following two options, which one do you prefer?",Mountains,Tue Nov 12 2019 15:50:22 GMT+0100 (Central European Standard Time),1573570222868,0.7027333333333333,forced_choice,3
301,,7500,24,,Graduated High School,1573569930666,8,female,French,Mountains,Beach,"If you have to choose between the following two options, which one do you prefer?",Mountains,Tue Nov 12 2019 14:44:42 GMT+0000 (Greenwich Mean Time),1573569882680,0.7997666666666666,forced_choice,1
301,,1873,24,,Graduated High School,1573569930666,8,female,French,Metal,Jazz,"If you have to choose between the following two options, which one do you prefer?",Jazz,Tue Nov 12 2019 14:44:42 GMT+0000 (Greenwich Mean Time),1573569882680,0.7997666666666666,forced_choice,2
301,,3226,24,,Graduated High School,1573569930666,8,female,French,Biology,Logic,"If you have to choose between the following two options, which one do you prefer?",Logic,Tue Nov 12 2019 14:44:42 GMT+0000 (Greenwich Mean Time),1573569882680,0.7997666666666666,forced_choice,3
300,,2110,24,SLAYEEEEEEER,Graduated High School,1573569584392,8,male,de_DE,Metal,Jazz,"If you have to choose between the following two options, which one do you prefer?",Metal,Tue Nov 12 2019 15:38:46 GMT+0100 (GMT+01:00),1573569526079,0.9718833333333333,forced_choice,1
300,,1381,24,SLAYEEEEEEER,Graduated High School,1573569584392,8,male,de_DE,Mountains,Beach,"If you have to choose between the following two options, which one do you prefer?",Mountains,Tue Nov 12 2019 15:38:46 GMT+0100 (GMT+01:00),1573569526079,0.9718833333333333,forced_choice,2
300,,1055,24,SLAYEEEEEEER,Graduated High School,1573569584392,8,male,de_DE,Biology,Logic,"If you have to choose between the following two options, which one do you prefer?",Logic,Tue Nov 12 2019 15:38:46 GMT+0100 (GMT+01:00),1573569526079,0.9718833333333333,forced_choice,3
299,,6337,21,,Graduated High School,1573569390879,8,female,Polish,Mountains,Beach,"If you have to choose between the following two options, which one do you prefer?",Beach,Tue Nov 12 2019 15:35:36 GMT+0100 (czas środkowoeuropejski standardowy),1573569336911,0.8994666666666666,forced_choice,1
299,,6700,21,,Graduated High School,1573569390879,8,female,Polish,Biology,Logic,"If you have to choose between the following two options, which one do you prefer?",Logic,Tue Nov 12 2019 15:35:36 GMT+0100 (czas środkowoeuropejski standardowy),1573569336911,0.8994666666666666,forced_choice,2
299,,3204,21,,Graduated High School,1573569390879,8,female,Polish,Metal,Jazz,"If you have to choose between the following two options, which one do you prefer?",Jazz,Tue Nov 12 2019 15:35:36 GMT+0100 (czas środkowoeuropejski standardowy),1573569336911,0.8994666666666666,forced_choice,3
298,,5461,19,,Graduated High School,1573568955475,8,male,"German, English",Metal,Jazz,"If you have to choose between the following two options, which one do you prefer?",Jazz,Tue Nov 12 2019 15:28:20 GMT+0100 (Mitteleuropäische Normalzeit),1573568900953,0.9087,forced_choice,1
298,,2714,19,,Graduated High School,1573568955475,8,male,"German, English",Mountains,Beach,"If you have to choose between the following two options, which one do you prefer?",Beach,Tue Nov 12 2019 15:28:20 GMT+0100 (Mitteleuropäische Normalzeit),1573568900953,0.9087,forced_choice,2
298,,7585,19,,Graduated High School,1573568955475,8,male,"German, English",Biology,Logic,"If you have to choose between the following two options, which one do you prefer?",Biology,Tue Nov 12 2019 15:28:20 GMT+0100 (Mitteleuropäische Normalzeit),1573568900953,0.9087,forced_choice,3
297,,12131,22,,Graduated High School,1573568374519,8,male,german,Biology,Logic,"If you have to choose between the following two options, which one do you prefer?",Logic,Tue Nov 12 2019 15:18:25 GMT+0100 (Mitteleuropäische Normalzeit),1573568305601,1.1486333333333334,forced_choice,1
297,,2325,22,,Graduated High School,1573568374519,8,male,german,Metal,Jazz,"If you have to choose between the following two options, which one do you prefer?",Jazz,Tue Nov 12 2019 15:18:25 GMT+0100 (Mitteleuropäische Normalzeit),1573568305601,1.1486333333333334,forced_choice,2
297,,10168,22,,Graduated High School,1573568374519,8,male,german,Mountains,Beach,"If you have to choose between the following two options, which one do you prefer?",Mountains,Tue Nov 12 2019 15:18:25 GMT+0100 (Mitteleuropäische Normalzeit),1573568305601,1.1486333333333334,forced_choice,3
296,,8099,20,,Graduated High School,1573568255642,8,male,German,Metal,Jazz,"If you have to choose between the following two options, which one do you prefer?",Jazz,Tue Nov 12 2019 15:16:39 GMT+0100 (Central European Standard Time),1573568199102,0.9423333333333334,forced_choice,1
296,,6638,20,,Graduated High School,1573568255642,8,male,German,Mountains,Beach,"If you have to choose between the following two options, which one do you prefer?",Mountains,Tue Nov 12 2019 15:16:39 GMT+0100 (Central European Standard Time),1573568199102,0.9423333333333334,forced_choice,2
296,,5138,20,,Graduated High School,1573568255642,8,male,German,Biology,Logic,"If you have to choose between the following two options, which one do you prefer?",Biology,Tue Nov 12 2019 15:16:39 GMT+0100 (Central European Standard Time),1573568199102,0.9423333333333334,forced_choice,3
295,,6134,22,,Graduated High School,1573568211494,8,female,German,Biology,Logic,"If you have to choose between the following two options, which one do you prefer?",Biology,Tue Nov 12 2019 15:16:16 GMT+0100 (Mitteleuropäische Normalzeit),1573568176678,0.5802666666666667,forced_choice,1
295,,3260,22,,Graduated High School,1573568211494,8,female,German,Metal,Jazz,"If you have to choose between the following two options, which one do you prefer?",Jazz,Tue Nov 12 2019 15:16:16 GMT+0100 (Mitteleuropäische Normalzeit),1573568176678,0.5802666666666667,forced_choice,2
295,,3396,22,,Graduated High School,1573568211494,8,female,German,Mountains,Beach,"If you have to choose between the following two options, which one do you prefer?",Mountains,Tue Nov 12 2019 15:16:16 GMT+0100 (Mitteleuropäische Normalzeit),1573568176678,0.5802666666666667,forced_choice,3
294,,8605,28,,Higher Degree,1573568016919,8,male,Persian,Biology,Logic,"If you have to choose between the following two options, which one do you prefer?",Biology,Tue Nov 12 2019 15:12:34 GMT+0100 (Central European Standard Time),1573567954443,1.0412666666666666,forced_choice,1
294,,5563,28,,Higher Degree,1573568016919,8,male,Persian,Mountains,Beach,"If you have to choose between the following two options, which one do you prefer?",Mountains,Tue Nov 12 2019 15:12:34 GMT+0100 (Central European Standard Time),1573567954443,1.0412666666666666,forced_choice,2
294,,3541,28,,Higher Degree,1573568016919,8,male,Persian,Metal,Jazz,"If you have to choose between the following two options, which one do you prefer?",Jazz,Tue Nov 12 2019 15:12:34 GMT+0100 (Central European Standard Time),1573567954443,1.0412666666666666,forced_choice,3
293,,4457,22,,Graduated High School,1573567971798,8,female,German,Biology,Logic,"If you have to choose between the following two options, which one do you prefer?",Biology,Tue Nov 12 2019 15:12:24 GMT+0100 (Mitteleuropäische Zeit),1573567944777,0.45035,forced_choice,1
293,,1806,22,,Graduated High School,1573567971798,8,female,German,Mountains,Beach,"If you have to choose between the following two options, which one do you prefer?",Mountains,Tue Nov 12 2019 15:12:24 GMT+0100 (Mitteleuropäische Zeit),1573567944777,0.45035,forced_choice,2
293,,1201,22,,Graduated High School,1573567971798,8,female,German,Metal,Jazz,"If you have to choose between the following two options, which one do you prefer?",Jazz,Tue Nov 12 2019 15:12:24 GMT+0100 (Mitteleuropäische Zeit),1573567944777,0.45035,forced_choice,3
292,,2922,,,,1573567947676,8,,,Biology,Logic,"If you have to choose between the following two options, which one do you prefer?",Logic,Tue Nov 12 2019 15:12:08 GMT+0100 (Mitteleuropäische Normalzeit),1573567928869,0.31345,forced_choice,1
292,,2035,,,,1573567947676,8,,,Mountains,Beach,"If you have to choose between the following two options, which one do you prefer?",Mountains,Tue Nov 12 2019 15:12:08 GMT+0100 (Mitteleuropäische Normalzeit),1573567928869,0.31345,forced_choice,2
292,,1872,,,,1573567947676,8,,,Metal,Jazz,"If you have to choose between the following two options, which one do you prefer?",Metal,Tue Nov 12 2019 15:12:08 GMT+0100 (Mitteleuropäische Normalzeit),1573567928869,0.31345,forced_choice,3
291,,8090,19,,Graduated High School,1573567944894,8,female,German,Biology,Logic,"If you have to choose between the following two options, which one do you prefer?",Biology,Tue Nov 12 2019 15:11:34 GMT+0100 (Mitteleuropäische Normalzeit),1573567894700,0.8365666666666667,forced_choice,1
291,,4925,19,,Graduated High School,1573567944894,8,female,German,Mountains,Beach,"If you have to choose between the following two options, which one do you prefer?",Mountains,Tue Nov 12 2019 15:11:34 GMT+0100 (Mitteleuropäische Normalzeit),1573567894700,0.8365666666666667,forced_choice,2
291,,2790,19,,Graduated High School,1573567944894,8,female,German,Metal,Jazz,"If you have to choose between the following two options, which one do you prefer?",Metal,Tue Nov 12 2019 15:11:34 GMT+0100 (Mitteleuropäische Normalzeit),1573567894700,0.8365666666666667,forced_choice,3
290,,5434,21,,Graduated High School,1573567713059,8,male,German,Biology,Logic,"If you have to choose between the following two options, which one do you prefer?",Logic,Tue Nov 12 2019 15:07:26 GMT+0100 (Central European Standard Time),1573567646566,1.1082166666666666,forced_choice,1
290,,2876,21,,Graduated High School,1573567713059,8,male,German,Metal,Jazz,"If you have to choose between the following two options, which one do you prefer?",Jazz,Tue Nov 12 2019 15:07:26 GMT+0100 (Central European Standard Time),1573567646566,1.1082166666666666,forced_choice,2
290,,2724,21,,Graduated High School,1573567713059,8,male,German,Mountains,Beach,"If you have to choose between the following two options, which one do you prefer?",Mountains,Tue Nov 12 2019 15:07:26 GMT+0100 (Central European Standard Time),1573567646566,1.1082166666666666,forced_choice,3
289,,3220,22,,Graduated High School,1573567693738,8,female,German,Biology,Logic,"If you have to choose between the following two options, which one do you prefer?",Biology,Tue Nov 12 2019 15:07:49 GMT+0100 (Mitteleuropäische Normalzeit),1573567669086,0.41086666666666666,forced_choice,1
289,,2223,22,,Graduated High School,1573567693738,8,female,German,Metal,Jazz,"If you have to choose between the following two options, which one do you prefer?",Metal,Tue Nov 12 2019 15:07:49 GMT+0100 (Mitteleuropäische Normalzeit),1573567669086,0.41086666666666666,forced_choice,2
289,,2189,22,,Graduated High School,1573567693738,8,female,German,Mountains,Beach,"If you have to choose between the following two options, which one do you prefer?",Beach,Tue Nov 12 2019 15:07:49 GMT+0100 (Mitteleuropäische Normalzeit),1573567669086,0.41086666666666666,forced_choice,3
288,,9546,20,,Graduated High School,1573567588480,8,male,German,Biology,Logic,"If you have to choose between the following two options, which one do you prefer?",Logic,Tue Nov 12 2019 15:05:24 GMT+0100 (Mitteleuropäische Normalzeit),1573567524524,1.0659333333333334,forced_choice,1
288,,5123,20,,Graduated High School,1573567588480,8,male,German,Mountains,Beach,"If you have to choose between the following two options, which one do you prefer?",Mountains,Tue Nov 12 2019 15:05:24 GMT+0100 (Mitteleuropäische Normalzeit),1573567524524,1.0659333333333334,forced_choice,2
288,,4356,20,,Graduated High School,1573567588480,8,male,German,Metal,Jazz,"If you have to choose between the following two options, which one do you prefer?",Jazz,Tue Nov 12 2019 15:05:24 GMT+0100 (Mitteleuropäische Normalzeit),1573567524524,1.0659333333333334,forced_choice,3
287,,15957,,,,1573567582064,8,,,Biology,Logic,"If you have to choose between the following two options, which one do you prefer?",Biology,Tue Nov 12 2019 15:05:46 GMT+0100 (Central European Standard Time),1573567546770,0.5882333333333334,forced_choice,1
287,,7087,,,,1573567582064,8,,,Mountains,Beach,"If you have to choose between the following two options, which one do you prefer?",Beach,Tue Nov 12 2019 15:05:46 GMT+0100 (Central European Standard Time),1573567546770,0.5882333333333334,forced_choice,2
287,,2569,,,,1573567582064,8,,,Metal,Jazz,"If you have to choose between the following two options, which one do you prefer?",Metal,Tue Nov 12 2019 15:05:46 GMT+0100 (Central European Standard Time),1573567546770,0.5882333333333334,forced_choice,3
286,,4822,21,,Graduated High School,1573567579619,8,male,German,Metal,Jazz,"If you have to choose between the following two options, which one do you prefer?",Jazz,Tue Nov 12 2019 15:05:24 GMT+0100 (Mitteleuropäische Normalzeit),1573567524657,0.9160333333333334,forced_choice,1
286,,2698,21,,Graduated High School,1573567579619,8,male,German,Biology,Logic,"If you have to choose between the following two options, which one do you prefer?",Biology,Tue Nov 12 2019 15:05:24 GMT+0100 (Mitteleuropäische Normalzeit),1573567524657,0.9160333333333334,forced_choice,2
286,,2862,21,,Graduated High School,1573567579619,8,male,German,Mountains,Beach,"If you have to choose between the following two options, which one do you prefer?",Beach,Tue Nov 12 2019 15:05:24 GMT+0100 (Mitteleuropäische Normalzeit),1573567524657,0.9160333333333334,forced_choice,3
285,,10441,22,,Graduated High School,1573567458409,8,male,German,Metal,Jazz,"If you have to choose between the following two options, which one do you prefer?",Jazz,Tue Nov 12 2019 15:02:44 GMT+0100 (Mitteleuropäische Normalzeit),1573567364047,1.5727,forced_choice,1
285,,9078,22,,Graduated High School,1573567458409,8,male,German,Mountains,Beach,"If you have to choose between the following two options, which one do you prefer?",Beach,Tue Nov 12 2019 15:02:44 GMT+0100 (Mitteleuropäische Normalzeit),1573567364047,1.5727,forced_choice,2
285,,8954,22,,Graduated High School,1573567458409,8,male,German,Biology,Logic,"If you have to choose between the following two options, which one do you prefer?",Biology,Tue Nov 12 2019 15:02:44 GMT+0100 (Mitteleuropäische Normalzeit),1573567364047,1.5727,forced_choice,3
284,,4232,22,,Graduated High School,1573567449563,8,female,german,Metal,Jazz,"If you have to choose between the following two options, which one do you prefer?",Metal,Tue Nov 12 2019 15:03:15 GMT+0100 (Central European Standard Time),1573567395601,0.8993666666666666,forced_choice,1
284,,3748,22,,Graduated High School,1573567449563,8,female,german,Mountains,Beach,"If you have to choose between the following two options, which one do you prefer?",Beach,Tue Nov 12 2019 15:03:15 GMT+0100 (Central European Standard Time),1573567395601,0.8993666666666666,forced_choice,2
284,,3154,22,,Graduated High School,1573567449563,8,female,german,Biology,Logic,"If you have to choose between the following two options, which one do you prefer?",Biology,Tue Nov 12 2019 15:03:15 GMT+0100 (Central European Standard Time),1573567395601,0.8993666666666666,forced_choice,3
283,,2700,19,,,1573567325726,8,female,german,Biology,Logic,"If you have to choose between the following two options, which one do you prefer?",Logic,Tue Nov 12 2019 15:01:32 GMT+0100 (Mitteleuropäische Normalzeit),1573567292230,0.5582666666666667,forced_choice,1
283,,3752,19,,,1573567325726,8,female,german,Mountains,Beach,"If you have to choose between the following two options, which one do you prefer?",Mountains,Tue Nov 12 2019 15:01:32 GMT+0100 (Mitteleuropäische Normalzeit),1573567292230,0.5582666666666667,forced_choice,2
283,,2468,19,,,1573567325726,8,female,german,Metal,Jazz,"If you have to choose between the following two options, which one do you prefer?",Jazz,Tue Nov 12 2019 15:01:32 GMT+0100 (Mitteleuropäische Normalzeit),1573567292230,0.5582666666666667,forced_choice,3
282,,3198,21,FUCKING SLAAAAAYEEEEEER!,Graduated High School,1573567286690,8,male,German,Mountains,Beach,"If you have to choose between the following two options, which one do you prefer?",Mountains,Tue Nov 12 2019 15:00:26 GMT+0100 (Mitteleuropäische Normalzeit),1573567226227,1.0077166666666666,forced_choice,1
282,,1495,21,FUCKING SLAAAAAYEEEEEER!,Graduated High School,1573567286690,8,male,German,Metal,Jazz,"If you have to choose between the following two options, which one do you prefer?",Metal,Tue Nov 12 2019 15:00:26 GMT+0100 (Mitteleuropäische Normalzeit),1573567226227,1.0077166666666666,forced_choice,2
282,,1489,21,FUCKING SLAAAAAYEEEEEER!,Graduated High School,1573567286690,8,male,German,Biology,Logic,"If you have to choose between the following two options, which one do you prefer?",Logic,Tue Nov 12 2019 15:00:26 GMT+0100 (Mitteleuropäische Normalzeit),1573567226227,1.0077166666666666,forced_choice,3
281,,201,21,,Graduated High School,1573567285140,8,female,German,Metal,Jazz,"If you have to choose between the following two options, which one do you prefer?",Metal,Tue Nov 12 2019 15:00:29 GMT+0100 (Mitteleuropäische Normalzeit),1573567229784,0.9226,forced_choice,1
281,,13085,21,,Graduated High School,1573567285140,8,female,German,Biology,Logic,"If you have to choose between the following two options, which one do you prefer?",Logic,Tue Nov 12 2019 15:00:29 GMT+0100 (Mitteleuropäische Normalzeit),1573567229784,0.9226,forced_choice,2
281,,4681,21,,Graduated High School,1573567285140,8,female,German,Mountains,Beach,"If you have to choose between the following two options, which one do you prefer?",Mountains,Tue Nov 12 2019 15:00:29 GMT+0100 (Mitteleuropäische Normalzeit),1573567229784,0.9226,forced_choice,3
280,,2828,18,,Graduated High School,1573567285285,8,female,german,Biology,Logic,"If you have to choose between the following two options, which one do you prefer?",Biology,Tue Nov 12 2019 15:00:18 GMT+0100 (CET),1573567218323,1.1160333333333334,forced_choice,1
280,,16238,18,,Graduated High School,1573567285285,8,female,german,Mountains,Beach,"If you have to choose between the following two options, which one do you prefer?",Beach,Tue Nov 12 2019 15:00:18 GMT+0100 (CET),1573567218323,1.1160333333333334,forced_choice,2
280,,1630,18,,Graduated High School,1573567285285,8,female,german,Metal,Jazz,"If you have to choose between the following two options, which one do you prefer?",Jazz,Tue Nov 12 2019 15:00:18 GMT+0100 (CET),1573567218323,1.1160333333333334,forced_choice,3
279,,7718,25,,Graduated High School,1573567281015,8,male,German,Biology,Logic,"If you have to choose between the following two options, which one do you prefer?",Logic,Tue Nov 12 2019 15:00:08 GMT+0100 (Mitteleuropäische Normalzeit),1573567208096,1.2153166666666666,forced_choice,1
279,,6385,25,,Graduated High School,1573567281015,8,male,German,Mountains,Beach,"If you have to choose between the following two options, which one do you prefer?",Mountains,Tue Nov 12 2019 15:00:08 GMT+0100 (Mitteleuropäische Normalzeit),1573567208096,1.2153166666666666,forced_choice,2
279,,4742,25,,Graduated High School,1573567281015,8,male,German,Metal,Jazz,"If you have to choose between the following two options, which one do you prefer?",Jazz,Tue Nov 12 2019 15:00:08 GMT+0100 (Mitteleuropäische Normalzeit),1573567208096,1.2153166666666666,forced_choice,3
278,,1338,,,Graduated High School,1573566563122,8,female,German,Metal,Jazz,"If you have to choose between the following two options, which one do you prefer?",Metal,Tue Nov 12 2019 14:48:56 GMT+0100 (CET),1573566536046,0.45126666666666665,forced_choice,1
278,,1033,,,Graduated High School,1573566563122,8,female,German,Biology,Logic,"If you have to choose between the following two options, which one do you prefer?",Logic,Tue Nov 12 2019 14:48:56 GMT+0100 (CET),1573566536046,0.45126666666666665,forced_choice,2
278,,1057,,,Graduated High School,1573566563122,8,female,German,Mountains,Beach,"If you have to choose between the following two options, which one do you prefer?",Mountains,Tue Nov 12 2019 14:48:56 GMT+0100 (CET),1573566536046,0.45126666666666665,forced_choice,3
