submission_id,QUD,RT,age,comments,condition,correct,education,endTime,experiment_id,gender,languages,option1,option2,question,response,startDate,startTime,timeSpent,trial_name,trial_number,type,vignette
277,,6069,34,,none,false,Graduated College,1573289720236,6,male,German,FALSE,TRUE,World War II was a global war that lasted from 1914 to 1918.,FALSE,Sat Nov 09 2019 09:50:54 GMT+0100 (Mitteleuropäische Normalzeit),1573289454269,4.432783333333333,practice_trials,1,practice,undefined
277,,2925,34,,none,false,Graduated College,1573289720236,6,male,German,FALSE,TRUE,Spain is a country in Asia.,FALSE,Sat Nov 09 2019 09:50:54 GMT+0100 (Mitteleuropäische Normalzeit),1573289454269,4.432783333333333,practice_trials,2,practice,undefined
277,,4058,34,,none,true,Graduated College,1573289720236,6,male,German,FALSE,TRUE,Normally there are 32 teeth in the adult human body.,TRUE,Sat Nov 09 2019 09:50:54 GMT+0100 (Mitteleuropäische Normalzeit),1573289454269,4.432783333333333,practice_trials,3,practice,undefined
277,,12224,34,,none,true,Graduated College,1573289720236,6,male,German,FALSE,TRUE,"William Shakespeare was an English poet, playwright and actor, regarded as the greatest writer in the English language.",TRUE,Sat Nov 09 2019 09:50:54 GMT+0100 (Mitteleuropäische Normalzeit),1573289454269,4.432783333333333,practice_trials,4,practice,undefined
277,,4230,34,,none,true,Graduated College,1573289720236,6,male,German,FALSE,TRUE,Alexander Bell invented the telephone.,TRUE,Sat Nov 09 2019 09:50:54 GMT+0100 (Mitteleuropäische Normalzeit),1573289454269,4.432783333333333,practice_trials,5,practice,undefined
277,,3312,34,,none,false,Graduated College,1573289720236,6,male,German,FALSE,TRUE,Big Ben is a very large building in the middle of Paris.,FALSE,Sat Nov 09 2019 09:50:54 GMT+0100 (Mitteleuropäische Normalzeit),1573289454269,4.432783333333333,main_trials,1,filler,none
277,,5657,34,,none,true,Graduated College,1573289720236,6,male,German,FALSE,TRUE,The Great Wall is one of the seven wonders of the world.,FALSE,Sat Nov 09 2019 09:50:54 GMT+0100 (Mitteleuropäische Normalzeit),1573289454269,4.432783333333333,main_trials,2,filler,none
277,,4473,34,,6,false,Graduated College,1573289720236,6,male,German,FALSE,TRUE,The volcanoes of Germany do not dominate the landscape.,TRUE,Sat Nov 09 2019 09:50:54 GMT+0100 (Mitteleuropäische Normalzeit),1573289454269,4.432783333333333,main_trials,3,main,5
277,,9742,34,,none,true,Graduated College,1573289720236,6,male,German,FALSE,TRUE,The United Nations Children's Fund (UNICEF) provides humanitarian and developmental assistance to children and mothers in developing countries.,TRUE,Sat Nov 09 2019 09:50:54 GMT+0100 (Mitteleuropäische Normalzeit),1573289454269,4.432783333333333,main_trials,4,filler,none
277,,3901,34,,none,false,Graduated College,1573289720236,6,male,German,FALSE,TRUE,Elvis Presley is one of the most popular musicians in this decade.,FALSE,Sat Nov 09 2019 09:50:54 GMT+0100 (Mitteleuropäische Normalzeit),1573289454269,4.432783333333333,main_trials,5,filler,none
277,,3725,34,,none,false,Graduated College,1573289720236,6,male,German,FALSE,TRUE,William Shakespeare was a famous Italian painter in Rome.,FALSE,Sat Nov 09 2019 09:50:54 GMT+0100 (Mitteleuropäische Normalzeit),1573289454269,4.432783333333333,main_trials,6,filler,none
277,,11854,34,,10,false,Graduated College,1573289720236,6,male,German,FALSE,TRUE,"Emmanuel Macron, he did not call the King of France last night.",TRUE,Sat Nov 09 2019 09:50:54 GMT+0100 (Mitteleuropäische Normalzeit),1573289454269,4.432783333333333,main_trials,7,main,1
277,,4103,34,,none,true,Graduated College,1573289720236,6,male,German,FALSE,TRUE,There are more than 2 countries in the United Nations.,TRUE,Sat Nov 09 2019 09:50:54 GMT+0100 (Mitteleuropäische Normalzeit),1573289454269,4.432783333333333,main_trials,8,filler,none
277,,14287,34,,9,false,Graduated College,1573289720236,6,male,German,FALSE,TRUE,"The Emperor of Canada, he does not reside in Dresden for the summer.",TRUE,Sat Nov 09 2019 09:50:54 GMT+0100 (Mitteleuropäische Normalzeit),1573289454269,4.432783333333333,main_trials,9,main,2
277,,3730,34,,none,true,Graduated College,1573289720236,6,male,German,FALSE,TRUE,Monkeys like to eat bananas.,TRUE,Sat Nov 09 2019 09:50:54 GMT+0100 (Mitteleuropäische Normalzeit),1573289454269,4.432783333333333,main_trials,10,filler,none
277,,1595,34,,none,false,Graduated College,1573289720236,6,male,German,FALSE,TRUE,Germany has volcanoes.,TRUE,Sat Nov 09 2019 09:50:54 GMT+0100 (Mitteleuropäische Normalzeit),1573289454269,4.432783333333333,main_trials,11,special,5
277,,4982,34,,none,false,Graduated College,1573289720236,6,male,German,FALSE,TRUE,Vatican City is the world's largest country by land area.,FALSE,Sat Nov 09 2019 09:50:54 GMT+0100 (Mitteleuropäische Normalzeit),1573289454269,4.432783333333333,main_trials,12,filler,none
277,,3122,34,,0,false,Graduated College,1573289720236,6,male,German,FALSE,TRUE,The Pope’s wife is a lawyer.,FALSE,Sat Nov 09 2019 09:50:54 GMT+0100 (Mitteleuropäische Normalzeit),1573289454269,4.432783333333333,main_trials,13,main,3
277,,7796,34,,none,false,Graduated College,1573289720236,6,male,German,FALSE,TRUE,Romeo and Juliet is a tragedy written by Leo Tolstoy.,FALSE,Sat Nov 09 2019 09:50:54 GMT+0100 (Mitteleuropäische Normalzeit),1573289454269,4.432783333333333,main_trials,14,filler,none
277,,3561,34,,none,false,Graduated College,1573289720236,6,male,German,FALSE,TRUE,The desert of Sweden is the hottest desert in the world.,FALSE,Sat Nov 09 2019 09:50:54 GMT+0100 (Mitteleuropäische Normalzeit),1573289454269,4.432783333333333,main_trials,15,filler,none
277,,2281,34,,none,false,Graduated College,1573289720236,6,male,German,FALSE,TRUE,France has a king.,FALSE,Sat Nov 09 2019 09:50:54 GMT+0100 (Mitteleuropäische Normalzeit),1573289454269,4.432783333333333,main_trials,16,special,1
277,,3621,34,,none,false,Graduated College,1573289720236,6,male,German,FALSE,TRUE,India is the smallest country in Europe.,FALSE,Sat Nov 09 2019 09:50:54 GMT+0100 (Mitteleuropäische Normalzeit),1573289454269,4.432783333333333,main_trials,17,filler,none
277,,2024,34,,none,true,Graduated College,1573289720236,6,male,German,FALSE,TRUE,Canada is a democracy.,TRUE,Sat Nov 09 2019 09:50:54 GMT+0100 (Mitteleuropäische Normalzeit),1573289454269,4.432783333333333,main_trials,18,special,2
277,,9865,34,,1,false,Graduated College,1573289720236,6,male,German,FALSE,TRUE,"There is a rainforest in Belgium, and it provides a habitat for many species.",FALSE,Sat Nov 09 2019 09:50:54 GMT+0100 (Mitteleuropäische Normalzeit),1573289454269,4.432783333333333,main_trials,19,main,4
277,,2590,34,,none,false,Graduated College,1573289720236,6,male,German,FALSE,TRUE,Albert Einstein was a very famous Chinese scientist.,FALSE,Sat Nov 09 2019 09:50:54 GMT+0100 (Mitteleuropäische Normalzeit),1573289454269,4.432783333333333,main_trials,20,filler,none
277,,11921,34,,none,true,Graduated College,1573289720236,6,male,German,FALSE,TRUE,Test of English as a Foreign Language (TOEFL) is a standardized test to measure the English language ability of non-native speakers.,TRUE,Sat Nov 09 2019 09:50:54 GMT+0100 (Mitteleuropäische Normalzeit),1573289454269,4.432783333333333,main_trials,21,filler,none
277,,3361,34,,none,true,Graduated College,1573289720236,6,male,German,FALSE,TRUE,The Pope is currently not married.,TRUE,Sat Nov 09 2019 09:50:54 GMT+0100 (Mitteleuropäische Normalzeit),1573289454269,4.432783333333333,main_trials,22,special,3
277,,6680,34,,none,true,Graduated College,1573289720236,6,male,German,FALSE,TRUE,Hibernation is a deep sleep that helps animals to save energy and survive the winter without eating much.,TRUE,Sat Nov 09 2019 09:50:54 GMT+0100 (Mitteleuropäische Normalzeit),1573289454269,4.432783333333333,main_trials,23,filler,none
277,,2223,34,,none,false,Graduated College,1573289720236,6,male,German,FALSE,TRUE,Belgium has rainforests.,FALSE,Sat Nov 09 2019 09:50:54 GMT+0100 (Mitteleuropäische Normalzeit),1573289454269,4.432783333333333,main_trials,24,special,4
276,,3977,20,,none,false,Graduated High School,1573212354086,6,male,german,FALSE,TRUE,Spain is a country in Asia.,FALSE,Fri Nov 08 2019 12:21:34 GMT+0100 (Mitteleuropäische Normalzeit),1573212094561,4.3254166666666665,practice_trials,1,practice,undefined
276,,9809,20,,none,false,Graduated High School,1573212354086,6,male,german,FALSE,TRUE,World War II was a global war that lasted from 1914 to 1918.,FALSE,Fri Nov 08 2019 12:21:34 GMT+0100 (Mitteleuropäische Normalzeit),1573212094561,4.3254166666666665,practice_trials,2,practice,undefined
276,,7430,20,,none,true,Graduated High School,1573212354086,6,male,german,FALSE,TRUE,Normally there are 32 teeth in the adult human body.,TRUE,Fri Nov 08 2019 12:21:34 GMT+0100 (Mitteleuropäische Normalzeit),1573212094561,4.3254166666666665,practice_trials,3,practice,undefined
276,,4817,20,,none,true,Graduated High School,1573212354086,6,male,german,FALSE,TRUE,Alexander Bell invented the telephone.,FALSE,Fri Nov 08 2019 12:21:34 GMT+0100 (Mitteleuropäische Normalzeit),1573212094561,4.3254166666666665,practice_trials,4,practice,undefined
276,,9758,20,,none,true,Graduated High School,1573212354086,6,male,german,FALSE,TRUE,"William Shakespeare was an English poet, playwright and actor, regarded as the greatest writer in the English language.",TRUE,Fri Nov 08 2019 12:21:34 GMT+0100 (Mitteleuropäische Normalzeit),1573212094561,4.3254166666666665,practice_trials,5,practice,undefined
276,,12129,20,,none,true,Graduated High School,1573212354086,6,male,german,FALSE,TRUE,Russia is one of the biggest countries in the world.,TRUE,Fri Nov 08 2019 12:21:34 GMT+0100 (Mitteleuropäische Normalzeit),1573212094561,4.3254166666666665,main_trials,1,filler,none
276,,4673,20,,none,true,Graduated High School,1573212354086,6,male,german,FALSE,TRUE,An earthquake is the result of the sudden movement of the earth’s tectonic plates.,TRUE,Fri Nov 08 2019 12:21:34 GMT+0100 (Mitteleuropäische Normalzeit),1573212094561,4.3254166666666665,main_trials,2,filler,none
276,,11087,20,,10,false,Graduated High School,1573212354086,6,male,german,FALSE,TRUE,"Leipzig, it is not threatened by the volcanoes of Germany.",TRUE,Fri Nov 08 2019 12:21:34 GMT+0100 (Mitteleuropäische Normalzeit),1573212094561,4.3254166666666665,main_trials,3,main,5
276,,19583,20,,none,false,Graduated High School,1573212354086,6,male,german,FALSE,TRUE,Elvis Presley is one of the most popular musicians in this decade.,FALSE,Fri Nov 08 2019 12:21:34 GMT+0100 (Mitteleuropäische Normalzeit),1573212094561,4.3254166666666665,main_trials,4,filler,none
276,,5938,20,,none,true,Graduated High School,1573212354086,6,male,german,FALSE,TRUE,Valentine's Day is celebrated in many ways worldwide.,TRUE,Fri Nov 08 2019 12:21:34 GMT+0100 (Mitteleuropäische Normalzeit),1573212094561,4.3254166666666665,main_trials,5,filler,none
276,,6948,20,,none,true,Graduated High School,1573212354086,6,male,german,FALSE,TRUE,Trees absorb carbon dioxide and release oxygen.,TRUE,Fri Nov 08 2019 12:21:34 GMT+0100 (Mitteleuropäische Normalzeit),1573212094561,4.3254166666666665,main_trials,6,filler,none
276,,6498,20,,6,false,Graduated High School,1573212354086,6,male,german,FALSE,TRUE,The Emperor of Canada isn’t fond of sushi.,FALSE,Fri Nov 08 2019 12:21:34 GMT+0100 (Mitteleuropäische Normalzeit),1573212094561,4.3254166666666665,main_trials,7,main,2
276,,3976,20,,none,true,Graduated High School,1573212354086,6,male,german,FALSE,TRUE,In the German language every noun has a gender.,TRUE,Fri Nov 08 2019 12:21:34 GMT+0100 (Mitteleuropäische Normalzeit),1573212094561,4.3254166666666665,main_trials,8,filler,none
276,,6873,20,,1,false,Graduated High School,1573212354086,6,male,german,FALSE,TRUE,"France has a king, and he is bald.",TRUE,Fri Nov 08 2019 12:21:34 GMT+0100 (Mitteleuropäische Normalzeit),1573212094561,4.3254166666666665,main_trials,9,main,1
276,,23346,20,,none,false,Graduated High School,1573212354086,6,male,german,FALSE,TRUE,Taj Mahal is a mausoleum on the bank of the river in the city of Rome.,FALSE,Fri Nov 08 2019 12:21:34 GMT+0100 (Mitteleuropäische Normalzeit),1573212094561,4.3254166666666665,main_trials,10,filler,none
276,,3976,20,,none,false,Graduated High School,1573212354086,6,male,german,FALSE,TRUE,Germany has volcanoes.,FALSE,Fri Nov 08 2019 12:21:34 GMT+0100 (Mitteleuropäische Normalzeit),1573212094561,4.3254166666666665,main_trials,11,special,5
276,,4322,20,,none,true,Graduated High School,1573212354086,6,male,german,FALSE,TRUE,The president of the USA is called Donald Trump.,TRUE,Fri Nov 08 2019 12:21:34 GMT+0100 (Mitteleuropäische Normalzeit),1573212094561,4.3254166666666665,main_trials,12,filler,none
276,,3858,20,,0,false,Graduated High School,1573212354086,6,male,german,FALSE,TRUE,The Pope’s wife is a lawyer.,FALSE,Fri Nov 08 2019 12:21:34 GMT+0100 (Mitteleuropäische Normalzeit),1573212094561,4.3254166666666665,main_trials,13,main,3
276,,10459,20,,none,false,Graduated High School,1573212354086,6,male,german,FALSE,TRUE,Manchester United is a French football team based in Paris.,FALSE,Fri Nov 08 2019 12:21:34 GMT+0100 (Mitteleuropäische Normalzeit),1573212094561,4.3254166666666665,main_trials,14,filler,none
276,,3466,20,,none,false,Graduated High School,1573212354086,6,male,german,FALSE,TRUE,The Leaning Tower of Pisa is one of Germany’s major tourist attractions.,FALSE,Fri Nov 08 2019 12:21:34 GMT+0100 (Mitteleuropäische Normalzeit),1573212094561,4.3254166666666665,main_trials,15,filler,none
276,,2565,20,,none,true,Graduated High School,1573212354086,6,male,german,FALSE,TRUE,Canada is a democracy.,FALSE,Fri Nov 08 2019 12:21:34 GMT+0100 (Mitteleuropäische Normalzeit),1573212094561,4.3254166666666665,main_trials,16,special,2
276,,6287,20,,none,true,Graduated High School,1573212354086,6,male,german,FALSE,TRUE,The brain is made up of very special cells called neurons.,TRUE,Fri Nov 08 2019 12:21:34 GMT+0100 (Mitteleuropäische Normalzeit),1573212094561,4.3254166666666665,main_trials,17,filler,none
276,,14187,20,,none,false,Graduated High School,1573212354086,6,male,german,FALSE,TRUE,France has a king.,TRUE,Fri Nov 08 2019 12:21:34 GMT+0100 (Mitteleuropäische Normalzeit),1573212094561,4.3254166666666665,main_trials,18,special,1
276,,7253,20,,9,false,Graduated High School,1573212354086,6,male,german,FALSE,TRUE,"The Belgian rainforest, it is not the favorite nature spot of Donald Trump.",FALSE,Fri Nov 08 2019 12:21:34 GMT+0100 (Mitteleuropäische Normalzeit),1573212094561,4.3254166666666665,main_trials,19,main,4
276,,6374,20,,none,true,Graduated High School,1573212354086,6,male,german,FALSE,TRUE,Test of English as a Foreign Language (TOEFL) is a standardized test to measure the English language ability of non-native speakers.,TRUE,Fri Nov 08 2019 12:21:34 GMT+0100 (Mitteleuropäische Normalzeit),1573212094561,4.3254166666666665,main_trials,20,filler,none
276,,8801,20,,none,true,Graduated High School,1573212354086,6,male,german,FALSE,TRUE,The heart is an organ in your body that pumps blood to other organs.,TRUE,Fri Nov 08 2019 12:21:34 GMT+0100 (Mitteleuropäische Normalzeit),1573212094561,4.3254166666666665,main_trials,21,filler,none
276,,2775,20,,none,true,Graduated High School,1573212354086,6,male,german,FALSE,TRUE,The Pope is currently not married.,TRUE,Fri Nov 08 2019 12:21:34 GMT+0100 (Mitteleuropäische Normalzeit),1573212094561,4.3254166666666665,main_trials,22,special,3
276,,8414,20,,none,false,Graduated High School,1573212354086,6,male,german,FALSE,TRUE,There is always a lot of snow during summer in Sydney.,FALSE,Fri Nov 08 2019 12:21:34 GMT+0100 (Mitteleuropäische Normalzeit),1573212094561,4.3254166666666665,main_trials,23,filler,none
276,,2932,20,,none,false,Graduated High School,1573212354086,6,male,german,FALSE,TRUE,Belgium has rainforests.,FALSE,Fri Nov 08 2019 12:21:34 GMT+0100 (Mitteleuropäische Normalzeit),1573212094561,4.3254166666666665,main_trials,24,special,4
275,,6395,22,,none,true,Graduated High School,1573211745003,6,male,German,FALSE,TRUE,Alexander Bell invented the telephone.,FALSE,Fri Nov 08 2019 12:11:24 GMT+0100 (Mitteleuropäische Normalzeit),1573211484141,4.3477,practice_trials,1,practice,undefined
275,,7895,22,,none,false,Graduated High School,1573211745003,6,male,German,FALSE,TRUE,World War II was a global war that lasted from 1914 to 1918.,FALSE,Fri Nov 08 2019 12:11:24 GMT+0100 (Mitteleuropäische Normalzeit),1573211484141,4.3477,practice_trials,2,practice,undefined
275,,23639,22,,none,true,Graduated High School,1573211745003,6,male,German,FALSE,TRUE,"William Shakespeare was an English poet, playwright and actor, regarded as the greatest writer in the English language.",TRUE,Fri Nov 08 2019 12:11:24 GMT+0100 (Mitteleuropäische Normalzeit),1573211484141,4.3477,practice_trials,3,practice,undefined
275,,27111,22,,none,true,Graduated High School,1573211745003,6,male,German,FALSE,TRUE,Normally there are 32 teeth in the adult human body.,TRUE,Fri Nov 08 2019 12:11:24 GMT+0100 (Mitteleuropäische Normalzeit),1573211484141,4.3477,practice_trials,4,practice,undefined
275,,3596,22,,none,false,Graduated High School,1573211745003,6,male,German,FALSE,TRUE,Spain is a country in Asia.,FALSE,Fri Nov 08 2019 12:11:24 GMT+0100 (Mitteleuropäische Normalzeit),1573211484141,4.3477,practice_trials,5,practice,undefined
275,,3961,22,,none,false,Graduated High School,1573211745003,6,male,German,FALSE,TRUE,Manchester United is a French football team based in Paris.,FALSE,Fri Nov 08 2019 12:11:24 GMT+0100 (Mitteleuropäische Normalzeit),1573211484141,4.3477,main_trials,1,filler,none
275,,4096,22,,none,true,Graduated High School,1573211745003,6,male,German,FALSE,TRUE,The Solar System includes the planet Earth.,TRUE,Fri Nov 08 2019 12:11:24 GMT+0100 (Mitteleuropäische Normalzeit),1573211484141,4.3477,main_trials,2,filler,none
275,,5627,22,,1,false,Graduated High School,1573211745003,6,male,German,FALSE,TRUE,"There are volcanoes in Germany, and they dominate the landscape.",FALSE,Fri Nov 08 2019 12:11:24 GMT+0100 (Mitteleuropäische Normalzeit),1573211484141,4.3477,main_trials,3,main,5
275,,3782,22,,none,true,Graduated High School,1573211745003,6,male,German,FALSE,TRUE,Planet Earth is part of the galaxy ‘Milky Way’.,TRUE,Fri Nov 08 2019 12:11:24 GMT+0100 (Mitteleuropäische Normalzeit),1573211484141,4.3477,main_trials,4,filler,none
275,,4222,22,,none,true,Graduated High School,1573211745003,6,male,German,FALSE,TRUE,The heart is an organ in your body that pumps blood to other organs.,TRUE,Fri Nov 08 2019 12:11:24 GMT+0100 (Mitteleuropäische Normalzeit),1573211484141,4.3477,main_trials,5,filler,none
275,,3445,22,,none,true,Graduated High School,1573211745003,6,male,German,FALSE,TRUE,The Great Wall is one of the seven wonders of the world.,TRUE,Fri Nov 08 2019 12:11:24 GMT+0100 (Mitteleuropäische Normalzeit),1573211484141,4.3477,main_trials,6,filler,none
275,,7669,22,,6,false,Graduated High School,1573211745003,6,male,German,FALSE,TRUE,The Pope’s wife isn’t a lawyer.,TRUE,Fri Nov 08 2019 12:11:24 GMT+0100 (Mitteleuropäische Normalzeit),1573211484141,4.3477,main_trials,7,main,3
275,,3821,22,,none,true,Graduated High School,1573211745003,6,male,German,FALSE,TRUE,Water boils at 100 degree C.,TRUE,Fri Nov 08 2019 12:11:24 GMT+0100 (Mitteleuropäische Normalzeit),1573211484141,4.3477,main_trials,8,filler,none
275,,6978,22,,10,false,Graduated High School,1573211745003,6,male,German,FALSE,TRUE,"Dresden, it is not the home of the Emperor of Canada for the summer.",TRUE,Fri Nov 08 2019 12:11:24 GMT+0100 (Mitteleuropäische Normalzeit),1573211484141,4.3477,main_trials,9,main,2
275,,4545,22,,none,true,Graduated High School,1573211745003,6,male,German,FALSE,TRUE,The brain needs a constant supply of oxygen to perform basic functions.,TRUE,Fri Nov 08 2019 12:11:24 GMT+0100 (Mitteleuropäische Normalzeit),1573211484141,4.3477,main_trials,10,filler,none
275,,2104,22,,none,false,Graduated High School,1573211745003,6,male,German,FALSE,TRUE,Germany has volcanoes.,TRUE,Fri Nov 08 2019 12:11:24 GMT+0100 (Mitteleuropäische Normalzeit),1573211484141,4.3477,main_trials,11,special,5
275,,3596,22,,none,true,Graduated High School,1573211745003,6,male,German,FALSE,TRUE,Square root of 16 is 4.,TRUE,Fri Nov 08 2019 12:11:24 GMT+0100 (Mitteleuropäische Normalzeit),1573211484141,4.3477,main_trials,12,filler,none
275,,10912,22,,0,false,Graduated High School,1573211745003,6,male,German,FALSE,TRUE,The king of France is bald.,FALSE,Fri Nov 08 2019 12:11:24 GMT+0100 (Mitteleuropäische Normalzeit),1573211484141,4.3477,main_trials,13,main,1
275,,4158,22,,none,true,Graduated High School,1573211745003,6,male,German,FALSE,TRUE,There are more than 2 countries in the United Nations.,TRUE,Fri Nov 08 2019 12:11:24 GMT+0100 (Mitteleuropäische Normalzeit),1573211484141,4.3477,main_trials,14,filler,none
275,,3431,22,,none,false,Graduated High School,1573211745003,6,male,German,FALSE,TRUE,James Bond is a spanish dancer from Madrid.,FALSE,Fri Nov 08 2019 12:11:24 GMT+0100 (Mitteleuropäische Normalzeit),1573211484141,4.3477,main_trials,15,filler,none
275,,4647,22,,none,true,Graduated High School,1573211745003,6,male,German,FALSE,TRUE,The Pope is currently not married.,TRUE,Fri Nov 08 2019 12:11:24 GMT+0100 (Mitteleuropäische Normalzeit),1573211484141,4.3477,main_trials,16,special,3
275,,5337,22,,none,true,Graduated High School,1573211745003,6,male,German,FALSE,TRUE,The Moon is an astronomical body that orbits planet Earth.,TRUE,Fri Nov 08 2019 12:11:24 GMT+0100 (Mitteleuropäische Normalzeit),1573211484141,4.3477,main_trials,17,filler,none
275,,2287,22,,none,true,Graduated High School,1573211745003,6,male,German,FALSE,TRUE,Canada is a democracy.,TRUE,Fri Nov 08 2019 12:11:24 GMT+0100 (Mitteleuropäische Normalzeit),1573211484141,4.3477,main_trials,18,special,2
275,,5750,22,,9,false,Graduated High School,1573211745003,6,male,German,FALSE,TRUE,"The Belgian rainforest, it is not the favorite nature spot of Donald Trump.",TRUE,Fri Nov 08 2019 12:11:24 GMT+0100 (Mitteleuropäische Normalzeit),1573211484141,4.3477,main_trials,19,main,4
275,,5399,22,,none,true,Graduated High School,1573211745003,6,male,German,FALSE,TRUE,Leonardo DiCaprio is a famous actor.,TRUE,Fri Nov 08 2019 12:11:24 GMT+0100 (Mitteleuropäische Normalzeit),1573211484141,4.3477,main_trials,20,filler,none
275,,3456,22,,none,true,Graduated High School,1573211745003,6,male,German,FALSE,TRUE,Monkeys like to eat bananas.,TRUE,Fri Nov 08 2019 12:11:24 GMT+0100 (Mitteleuropäische Normalzeit),1573211484141,4.3477,main_trials,21,filler,none
275,,3218,22,,none,false,Graduated High School,1573211745003,6,male,German,FALSE,TRUE,France has a king.,FALSE,Fri Nov 08 2019 12:11:24 GMT+0100 (Mitteleuropäische Normalzeit),1573211484141,4.3477,main_trials,22,special,1
275,,3457,22,,none,true,Graduated High School,1573211745003,6,male,German,FALSE,TRUE,Johnny Depp is an American actor who took part in the ‘Pirates of the Caribbean’ movies.,TRUE,Fri Nov 08 2019 12:11:24 GMT+0100 (Mitteleuropäische Normalzeit),1573211484141,4.3477,main_trials,23,filler,none
275,,3421,22,,none,false,Graduated High School,1573211745003,6,male,German,FALSE,TRUE,Belgium has rainforests.,FALSE,Fri Nov 08 2019 12:11:24 GMT+0100 (Mitteleuropäische Normalzeit),1573211484141,4.3477,main_trials,24,special,4
274,,5326,23,,none,true,Graduated College,1573210780391,6,male,German,FALSE,TRUE,Normally there are 32 teeth in the adult human body.,TRUE,Fri Nov 08 2019 11:56:06 GMT+0100 (Central European Standard Time),1573210566471,3.5653333333333332,practice_trials,1,practice,undefined
274,,2488,23,,none,false,Graduated College,1573210780391,6,male,German,FALSE,TRUE,Spain is a country in Asia.,FALSE,Fri Nov 08 2019 11:56:06 GMT+0100 (Central European Standard Time),1573210566471,3.5653333333333332,practice_trials,2,practice,undefined
274,,6377,23,,none,true,Graduated College,1573210780391,6,male,German,FALSE,TRUE,Alexander Bell invented the telephone.,TRUE,Fri Nov 08 2019 11:56:06 GMT+0100 (Central European Standard Time),1573210566471,3.5653333333333332,practice_trials,3,practice,undefined
274,,5837,23,,none,true,Graduated College,1573210780391,6,male,German,FALSE,TRUE,"William Shakespeare was an English poet, playwright and actor, regarded as the greatest writer in the English language.",TRUE,Fri Nov 08 2019 11:56:06 GMT+0100 (Central European Standard Time),1573210566471,3.5653333333333332,practice_trials,4,practice,undefined
274,,5901,23,,none,false,Graduated College,1573210780391,6,male,German,FALSE,TRUE,World War II was a global war that lasted from 1914 to 1918.,FALSE,Fri Nov 08 2019 11:56:06 GMT+0100 (Central European Standard Time),1573210566471,3.5653333333333332,practice_trials,5,practice,undefined
274,,6395,23,,none,true,Graduated College,1573210780391,6,male,German,FALSE,TRUE,The town of Pisa in Italy is famous for its Leaning Tower of Pisa.,TRUE,Fri Nov 08 2019 11:56:06 GMT+0100 (Central European Standard Time),1573210566471,3.5653333333333332,main_trials,1,filler,none
274,,5419,23,,none,true,Graduated College,1573210780391,6,male,German,FALSE,TRUE,Three is a prime number.,TRUE,Fri Nov 08 2019 11:56:06 GMT+0100 (Central European Standard Time),1573210566471,3.5653333333333332,main_trials,2,filler,none
274,,7907,23,,9,false,Graduated College,1573210780391,6,male,German,FALSE,TRUE,"The volcanoes of Germany, they do not threaten Leipzig.",TRUE,Fri Nov 08 2019 11:56:06 GMT+0100 (Central European Standard Time),1573210566471,3.5653333333333332,main_trials,3,main,5
274,,3675,23,,none,true,Graduated College,1573210780391,6,male,German,FALSE,TRUE,London is famous for Big Ben and the Queen.,TRUE,Fri Nov 08 2019 11:56:06 GMT+0100 (Central European Standard Time),1573210566471,3.5653333333333332,main_trials,4,filler,none
274,,8590,23,,none,true,Graduated College,1573210780391,6,male,German,FALSE,TRUE,Dinosaurs became extinct millions of years ago.,TRUE,Fri Nov 08 2019 11:56:06 GMT+0100 (Central European Standard Time),1573210566471,3.5653333333333332,main_trials,5,filler,none
274,,4033,23,,none,true,Graduated College,1573210780391,6,male,German,FALSE,TRUE,Earth has a powerful magnetic field.,FALSE,Fri Nov 08 2019 11:56:06 GMT+0100 (Central European Standard Time),1573210566471,3.5653333333333332,main_trials,6,filler,none
274,,10838,23,,10,false,Graduated College,1573210780391,6,male,German,FALSE,TRUE,"Dresden, it is not the home of the Emperor of Canada for the summer.",TRUE,Fri Nov 08 2019 11:56:06 GMT+0100 (Central European Standard Time),1573210566471,3.5653333333333332,main_trials,7,main,2
274,,6210,23,,none,true,Graduated College,1573210780391,6,male,German,FALSE,TRUE,Steve Jobs was an American inventor and co-founder of Apple.,TRUE,Fri Nov 08 2019 11:56:06 GMT+0100 (Central European Standard Time),1573210566471,3.5653333333333332,main_trials,8,filler,none
274,,9154,23,,0,false,Graduated College,1573210780391,6,male,German,FALSE,TRUE,The Belgian rainforest provides a habitat for many species.,TRUE,Fri Nov 08 2019 11:56:06 GMT+0100 (Central European Standard Time),1573210566471,3.5653333333333332,main_trials,9,main,4
274,,2837,23,,none,true,Graduated College,1573210780391,6,male,German,FALSE,TRUE,Venice is a city in Italy.,TRUE,Fri Nov 08 2019 11:56:06 GMT+0100 (Central European Standard Time),1573210566471,3.5653333333333332,main_trials,10,filler,none
274,,2284,23,,none,false,Graduated College,1573210780391,6,male,German,FALSE,TRUE,Germany has volcanoes.,TRUE,Fri Nov 08 2019 11:56:06 GMT+0100 (Central European Standard Time),1573210566471,3.5653333333333332,main_trials,11,special,5
274,,3314,23,,none,true,Graduated College,1573210780391,6,male,German,FALSE,TRUE,Leonardo DiCaprio is a famous actor.,TRUE,Fri Nov 08 2019 11:56:06 GMT+0100 (Central European Standard Time),1573210566471,3.5653333333333332,main_trials,12,filler,none
274,,5349,23,,1,false,Graduated College,1573210780391,6,male,German,FALSE,TRUE,"France has a king, and he is bald.",FALSE,Fri Nov 08 2019 11:56:06 GMT+0100 (Central European Standard Time),1573210566471,3.5653333333333332,main_trials,13,main,1
274,,6200,23,,none,true,Graduated College,1573210780391,6,male,German,FALSE,TRUE,Test of English as a Foreign Language (TOEFL) is a standardized test to measure the English language ability of non-native speakers.,TRUE,Fri Nov 08 2019 11:56:06 GMT+0100 (Central European Standard Time),1573210566471,3.5653333333333332,main_trials,14,filler,none
274,,4592,23,,none,true,Graduated College,1573210780391,6,male,German,FALSE,TRUE,The Earth was once believed to be the centre of the universe.,TRUE,Fri Nov 08 2019 11:56:06 GMT+0100 (Central European Standard Time),1573210566471,3.5653333333333332,main_trials,15,filler,none
274,,3366,23,,none,true,Graduated College,1573210780391,6,male,German,FALSE,TRUE,Canada is a democracy.,FALSE,Fri Nov 08 2019 11:56:06 GMT+0100 (Central European Standard Time),1573210566471,3.5653333333333332,main_trials,16,special,2
274,,6006,23,,none,false,Graduated College,1573210780391,6,male,German,FALSE,TRUE,China is the smallest country in South America.,FALSE,Fri Nov 08 2019 11:56:06 GMT+0100 (Central European Standard Time),1573210566471,3.5653333333333332,main_trials,17,filler,none
274,,4740,23,,none,false,Graduated College,1573210780391,6,male,German,FALSE,TRUE,Belgium has rainforests.,FALSE,Fri Nov 08 2019 11:56:06 GMT+0100 (Central European Standard Time),1573210566471,3.5653333333333332,main_trials,18,special,4
274,,5546,23,,6,false,Graduated College,1573210780391,6,male,German,FALSE,TRUE,The Pope’s wife isn’t a lawyer.,TRUE,Fri Nov 08 2019 11:56:06 GMT+0100 (Central European Standard Time),1573210566471,3.5653333333333332,main_trials,19,main,3
274,,7312,23,,none,true,Graduated College,1573210780391,6,male,German,FALSE,TRUE,There were two world wars in the 20th Century.,TRUE,Fri Nov 08 2019 11:56:06 GMT+0100 (Central European Standard Time),1573210566471,3.5653333333333332,main_trials,20,filler,none
274,,5623,23,,none,true,Graduated College,1573210780391,6,male,German,FALSE,TRUE,The Statue of Liberty is a colossal sculpture on Liberty Island in New York City in the United States.,TRUE,Fri Nov 08 2019 11:56:06 GMT+0100 (Central European Standard Time),1573210566471,3.5653333333333332,main_trials,21,filler,none
274,,4007,23,,none,false,Graduated College,1573210780391,6,male,German,FALSE,TRUE,France has a king.,FALSE,Fri Nov 08 2019 11:56:06 GMT+0100 (Central European Standard Time),1573210566471,3.5653333333333332,main_trials,22,special,1
274,,20895,23,,none,false,Graduated College,1573210780391,6,male,German,FALSE,TRUE,Taj Mahal is a mausoleum on the bank of the river in the city of Rome.,FALSE,Fri Nov 08 2019 11:56:06 GMT+0100 (Central European Standard Time),1573210566471,3.5653333333333332,main_trials,23,filler,none
274,,3077,23,,none,true,Graduated College,1573210780391,6,male,German,FALSE,TRUE,The Pope is currently not married.,TRUE,Fri Nov 08 2019 11:56:06 GMT+0100 (Central European Standard Time),1573210566471,3.5653333333333332,main_trials,24,special,3
273,,4961,21,,none,true,Graduated High School,1573209610052,6,female,Polish,FALSE,TRUE,Normally there are 32 teeth in the adult human body.,TRUE,Fri Nov 08 2019 11:36:25 GMT+0100 (czas środkowoeuropejski standardowy),1573209385510,3.742366666666667,practice_trials,1,practice,undefined
273,,2707,21,,none,false,Graduated High School,1573209610052,6,female,Polish,FALSE,TRUE,Spain is a country in Asia.,FALSE,Fri Nov 08 2019 11:36:25 GMT+0100 (czas środkowoeuropejski standardowy),1573209385510,3.742366666666667,practice_trials,2,practice,undefined
273,,2537,21,,none,true,Graduated High School,1573209610052,6,female,Polish,FALSE,TRUE,Alexander Bell invented the telephone.,TRUE,Fri Nov 08 2019 11:36:25 GMT+0100 (czas środkowoeuropejski standardowy),1573209385510,3.742366666666667,practice_trials,3,practice,undefined
273,,5024,21,,none,true,Graduated High School,1573209610052,6,female,Polish,FALSE,TRUE,"William Shakespeare was an English poet, playwright and actor, regarded as the greatest writer in the English language.",TRUE,Fri Nov 08 2019 11:36:25 GMT+0100 (czas środkowoeuropejski standardowy),1573209385510,3.742366666666667,practice_trials,4,practice,undefined
273,,4682,21,,none,false,Graduated High School,1573209610052,6,female,Polish,FALSE,TRUE,World War II was a global war that lasted from 1914 to 1918.,FALSE,Fri Nov 08 2019 11:36:25 GMT+0100 (czas środkowoeuropejski standardowy),1573209385510,3.742366666666667,practice_trials,5,practice,undefined
273,,3827,21,,none,true,Graduated High School,1573209610052,6,female,Polish,FALSE,TRUE,Earth is the third planet from the sun.,FALSE,Fri Nov 08 2019 11:36:25 GMT+0100 (czas środkowoeuropejski standardowy),1573209385510,3.742366666666667,main_trials,1,filler,none
273,,4977,21,,none,true,Graduated High School,1573209610052,6,female,Polish,FALSE,TRUE,The Moon is an astronomical body that orbits planet Earth.,TRUE,Fri Nov 08 2019 11:36:25 GMT+0100 (czas środkowoeuropejski standardowy),1573209385510,3.742366666666667,main_trials,2,filler,none
273,,11757,21,,1,false,Graduated High School,1573209610052,6,female,Polish,FALSE,TRUE,"Canada has an emperor, and he is fond of sushi.",FALSE,Fri Nov 08 2019 11:36:25 GMT+0100 (czas środkowoeuropejski standardowy),1573209385510,3.742366666666667,main_trials,3,main,2
273,,8486,21,,none,false,Graduated High School,1573209610052,6,female,Polish,FALSE,TRUE,Manchester United is a French football team based in Paris.,FALSE,Fri Nov 08 2019 11:36:25 GMT+0100 (czas środkowoeuropejski standardowy),1573209385510,3.742366666666667,main_trials,4,filler,none
273,,4180,21,,none,true,Graduated High School,1573209610052,6,female,Polish,FALSE,TRUE,Canada is a country located in North America.,TRUE,Fri Nov 08 2019 11:36:25 GMT+0100 (czas środkowoeuropejski standardowy),1573209385510,3.742366666666667,main_trials,5,filler,none
273,,5738,21,,none,false,Graduated High School,1573209610052,6,female,Polish,FALSE,TRUE,Vatican City is the world's largest country by land area.,FALSE,Fri Nov 08 2019 11:36:25 GMT+0100 (czas środkowoeuropejski standardowy),1573209385510,3.742366666666667,main_trials,6,filler,none
273,,5747,21,,0,false,Graduated High School,1573209610052,6,female,Polish,FALSE,TRUE,The king of France is bald.,TRUE,Fri Nov 08 2019 11:36:25 GMT+0100 (czas środkowoeuropejski standardowy),1573209385510,3.742366666666667,main_trials,7,main,1
273,,2661,21,,none,true,Graduated High School,1573209610052,6,female,Polish,FALSE,TRUE,Venice is a city in Italy.,TRUE,Fri Nov 08 2019 11:36:25 GMT+0100 (czas środkowoeuropejski standardowy),1573209385510,3.742366666666667,main_trials,8,filler,none
273,,13294,21,,9,false,Graduated High School,1573209610052,6,female,Polish,FALSE,TRUE,"The Pope’s wife, she did not invite Angela Merkel for dinner.",FALSE,Fri Nov 08 2019 11:36:25 GMT+0100 (czas środkowoeuropejski standardowy),1573209385510,3.742366666666667,main_trials,9,main,3
273,,3335,21,,none,false,Graduated High School,1573209610052,6,female,Polish,FALSE,TRUE,London is the capital of Asia.,FALSE,Fri Nov 08 2019 11:36:25 GMT+0100 (czas środkowoeuropejski standardowy),1573209385510,3.742366666666667,main_trials,10,filler,none
273,,2643,21,,none,true,Graduated High School,1573209610052,6,female,Polish,FALSE,TRUE,Canada is a democracy.,TRUE,Fri Nov 08 2019 11:36:25 GMT+0100 (czas środkowoeuropejski standardowy),1573209385510,3.742366666666667,main_trials,11,special,2
273,,7330,21,,none,false,Graduated High School,1573209610052,6,female,Polish,FALSE,TRUE,The Berlin Wall was destroyed 10 years ago by Sweden.,FALSE,Fri Nov 08 2019 11:36:25 GMT+0100 (czas środkowoeuropejski standardowy),1573209385510,3.742366666666667,main_trials,12,filler,none
273,,7812,21,,10,false,Graduated High School,1573209610052,6,female,Polish,FALSE,TRUE,"Leipzig, it is not threatened by the volcanoes of Germany.",TRUE,Fri Nov 08 2019 11:36:25 GMT+0100 (czas środkowoeuropejski standardowy),1573209385510,3.742366666666667,main_trials,13,main,5
273,,5768,21,,none,true,Graduated High School,1573209610052,6,female,Polish,FALSE,TRUE,In the German language every noun has a gender.,TRUE,Fri Nov 08 2019 11:36:25 GMT+0100 (czas środkowoeuropejski standardowy),1573209385510,3.742366666666667,main_trials,14,filler,none
273,,3462,21,,none,false,Graduated High School,1573209610052,6,female,Polish,FALSE,TRUE,Planet Earth is the sixth planet from the Sun.,TRUE,Fri Nov 08 2019 11:36:25 GMT+0100 (czas środkowoeuropejski standardowy),1573209385510,3.742366666666667,main_trials,15,filler,none
273,,2969,21,,none,false,Graduated High School,1573209610052,6,female,Polish,FALSE,TRUE,France has a king.,TRUE,Fri Nov 08 2019 11:36:25 GMT+0100 (czas środkowoeuropejski standardowy),1573209385510,3.742366666666667,main_trials,16,special,1
273,,4998,21,,none,true,Graduated High School,1573209610052,6,female,Polish,FALSE,TRUE,London is famous for Big Ben and the Queen.,TRUE,Fri Nov 08 2019 11:36:25 GMT+0100 (czas środkowoeuropejski standardowy),1573209385510,3.742366666666667,main_trials,17,filler,none
273,,4839,21,,none,true,Graduated High School,1573209610052,6,female,Polish,FALSE,TRUE,The Pope is currently not married.,TRUE,Fri Nov 08 2019 11:36:25 GMT+0100 (czas środkowoeuropejski standardowy),1573209385510,3.742366666666667,main_trials,18,special,3
273,,22712,21,,6,false,Graduated High School,1573209610052,6,female,Polish,FALSE,TRUE,The Belgian rainforest doesn’t provide a habitat for many species.,FALSE,Fri Nov 08 2019 11:36:25 GMT+0100 (czas środkowoeuropejski standardowy),1573209385510,3.742366666666667,main_trials,19,main,4
273,,3217,21,,none,false,Graduated High School,1573209610052,6,female,Polish,FALSE,TRUE,Justin Bieber has won 3 gold olympic medals.,FALSE,Fri Nov 08 2019 11:36:25 GMT+0100 (czas środkowoeuropejski standardowy),1573209385510,3.742366666666667,main_trials,20,filler,none
273,,2696,21,,none,true,Graduated High School,1573209610052,6,female,Polish,FALSE,TRUE,Paris is a popular city for many tourists.,TRUE,Fri Nov 08 2019 11:36:25 GMT+0100 (czas środkowoeuropejski standardowy),1573209385510,3.742366666666667,main_trials,21,filler,none
273,,2073,21,,none,false,Graduated High School,1573209610052,6,female,Polish,FALSE,TRUE,Germany has volcanoes.,FALSE,Fri Nov 08 2019 11:36:25 GMT+0100 (czas środkowoeuropejski standardowy),1573209385510,3.742366666666667,main_trials,22,special,5
273,,7892,21,,none,true,Graduated High School,1573209610052,6,female,Polish,FALSE,TRUE,"Michael Jackson was one of the most popular singers, songwriters, and dancers, known also as the ‘King of Pop’.",TRUE,Fri Nov 08 2019 11:36:25 GMT+0100 (czas środkowoeuropejski standardowy),1573209385510,3.742366666666667,main_trials,23,filler,none
273,,4878,21,,none,false,Graduated High School,1573209610052,6,female,Polish,FALSE,TRUE,Belgium has rainforests.,FALSE,Fri Nov 08 2019 11:36:25 GMT+0100 (czas środkowoeuropejski standardowy),1573209385510,3.742366666666667,main_trials,24,special,4
272,,41929,23,,none,true,Graduated College,1573205625363,6,male,german,FALSE,TRUE,Alexander Bell invented the telephone.,TRUE,Fri Nov 08 2019 10:29:18 GMT+0100 (Central European Standard Time),1573205358218,4.452416666666666,practice_trials,1,practice,undefined
272,,8299,23,,none,false,Graduated College,1573205625363,6,male,german,FALSE,TRUE,World War II was a global war that lasted from 1914 to 1918.,FALSE,Fri Nov 08 2019 10:29:18 GMT+0100 (Central European Standard Time),1573205358218,4.452416666666666,practice_trials,2,practice,undefined
272,,5157,23,,none,true,Graduated College,1573205625363,6,male,german,FALSE,TRUE,Normally there are 32 teeth in the adult human body.,TRUE,Fri Nov 08 2019 10:29:18 GMT+0100 (Central European Standard Time),1573205358218,4.452416666666666,practice_trials,3,practice,undefined
272,,4366,23,,none,false,Graduated College,1573205625363,6,male,german,FALSE,TRUE,Spain is a country in Asia.,FALSE,Fri Nov 08 2019 10:29:18 GMT+0100 (Central European Standard Time),1573205358218,4.452416666666666,practice_trials,4,practice,undefined
272,,16285,23,,none,true,Graduated College,1573205625363,6,male,german,FALSE,TRUE,"William Shakespeare was an English poet, playwright and actor, regarded as the greatest writer in the English language.",TRUE,Fri Nov 08 2019 10:29:18 GMT+0100 (Central European Standard Time),1573205358218,4.452416666666666,practice_trials,5,practice,undefined
272,,4303,23,,none,false,Graduated College,1573205625363,6,male,german,FALSE,TRUE,Vatican City is the world's largest country by land area.,FALSE,Fri Nov 08 2019 10:29:18 GMT+0100 (Central European Standard Time),1573205358218,4.452416666666666,main_trials,1,filler,none
272,,3502,23,,none,true,Graduated College,1573205625363,6,male,german,FALSE,TRUE,Three is a prime number.,TRUE,Fri Nov 08 2019 10:29:18 GMT+0100 (Central European Standard Time),1573205358218,4.452416666666666,main_trials,2,filler,none
272,,3119,23,,1,false,Graduated College,1573205625363,6,male,german,FALSE,TRUE,"France has a king, and he is bald.",FALSE,Fri Nov 08 2019 10:29:18 GMT+0100 (Central European Standard Time),1573205358218,4.452416666666666,main_trials,3,main,1
272,,3696,23,,none,false,Graduated College,1573205625363,6,male,german,FALSE,TRUE,Big Ben is a very large building in the middle of Paris.,FALSE,Fri Nov 08 2019 10:29:18 GMT+0100 (Central European Standard Time),1573205358218,4.452416666666666,main_trials,4,filler,none
272,,3760,23,,none,false,Graduated College,1573205625363,6,male,german,FALSE,TRUE,The country with the lowest population density is China.,FALSE,Fri Nov 08 2019 10:29:18 GMT+0100 (Central European Standard Time),1573205358218,4.452416666666666,main_trials,5,filler,none
272,,10533,23,,none,false,Graduated College,1573205625363,6,male,german,FALSE,TRUE,People love the polar bears in Australia.,TRUE,Fri Nov 08 2019 10:29:18 GMT+0100 (Central European Standard Time),1573205358218,4.452416666666666,main_trials,6,filler,none
272,,19094,23,,10,false,Graduated College,1573205625363,6,male,german,FALSE,TRUE,"Leipzig, it is not threatened by the volcanoes of Germany.",TRUE,Fri Nov 08 2019 10:29:18 GMT+0100 (Central European Standard Time),1573205358218,4.452416666666666,main_trials,7,main,5
272,,9863,23,,none,true,Graduated College,1573205625363,6,male,german,FALSE,TRUE,Stephen William Hawking was a famous physicist.,TRUE,Fri Nov 08 2019 10:29:18 GMT+0100 (Central European Standard Time),1573205358218,4.452416666666666,main_trials,8,filler,none
272,,2648,23,,0,false,Graduated College,1573205625363,6,male,german,FALSE,TRUE,The Pope’s wife is a lawyer.,FALSE,Fri Nov 08 2019 10:29:18 GMT+0100 (Central European Standard Time),1573205358218,4.452416666666666,main_trials,9,main,3
272,,3544,23,,none,true,Graduated College,1573205625363,6,male,german,FALSE,TRUE,Water boils at 100 degree C.,TRUE,Fri Nov 08 2019 10:29:18 GMT+0100 (Central European Standard Time),1573205358218,4.452416666666666,main_trials,10,filler,none
272,,1749,23,,none,false,Graduated College,1573205625363,6,male,german,FALSE,TRUE,France has a king.,FALSE,Fri Nov 08 2019 10:29:18 GMT+0100 (Central European Standard Time),1573205358218,4.452416666666666,main_trials,11,special,1
272,,2014,23,,none,true,Graduated College,1573205625363,6,male,german,FALSE,TRUE,The capital city of Russia is Moscow.,TRUE,Fri Nov 08 2019 10:29:18 GMT+0100 (Central European Standard Time),1573205358218,4.452416666666666,main_trials,12,filler,none
272,,14140,23,,6,false,Graduated College,1573205625363,6,male,german,FALSE,TRUE,The Belgian rainforest doesn’t provide a habitat for many species.,TRUE,Fri Nov 08 2019 10:29:18 GMT+0100 (Central European Standard Time),1573205358218,4.452416666666666,main_trials,13,main,4
272,,5351,23,,none,true,Graduated College,1573205625363,6,male,german,FALSE,TRUE,The University of Edinburgh is located in Great Britain.,TRUE,Fri Nov 08 2019 10:29:18 GMT+0100 (Central European Standard Time),1573205358218,4.452416666666666,main_trials,14,filler,none
272,,5337,23,,none,true,Graduated College,1573205625363,6,male,german,FALSE,TRUE,Alzheimer’s Disease is a brain disorder that affects memory.,TRUE,Fri Nov 08 2019 10:29:18 GMT+0100 (Central European Standard Time),1573205358218,4.452416666666666,main_trials,15,filler,none
272,,1965,23,,none,false,Graduated College,1573205625363,6,male,german,FALSE,TRUE,Germany has volcanoes.,FALSE,Fri Nov 08 2019 10:29:18 GMT+0100 (Central European Standard Time),1573205358218,4.452416666666666,main_trials,16,special,5
272,,5010,23,,none,true,Graduated College,1573205625363,6,male,german,FALSE,TRUE,Paris is a popular city for many tourists.,TRUE,Fri Nov 08 2019 10:29:18 GMT+0100 (Central European Standard Time),1573205358218,4.452416666666666,main_trials,17,filler,none
272,,1808,23,,none,true,Graduated College,1573205625363,6,male,german,FALSE,TRUE,The Pope is currently not married.,TRUE,Fri Nov 08 2019 10:29:18 GMT+0100 (Central European Standard Time),1573205358218,4.452416666666666,main_trials,18,special,3
272,,11319,23,,9,false,Graduated College,1573205625363,6,male,german,FALSE,TRUE,"The Emperor of Canada, he does not reside in Dresden for the summer.",TRUE,Fri Nov 08 2019 10:29:18 GMT+0100 (Central European Standard Time),1573205358218,4.452416666666666,main_trials,19,main,2
272,,4239,23,,none,false,Graduated College,1573205625363,6,male,german,FALSE,TRUE,William Shakespeare was a famous Italian painter in Rome.,FALSE,Fri Nov 08 2019 10:29:18 GMT+0100 (Central European Standard Time),1573205358218,4.452416666666666,main_trials,20,filler,none
272,,5279,23,,none,true,Graduated College,1573205625363,6,male,german,FALSE,TRUE,"Germany shares borders with France, Belgium and Denmark.",TRUE,Fri Nov 08 2019 10:29:18 GMT+0100 (Central European Standard Time),1573205358218,4.452416666666666,main_trials,21,filler,none
272,,1887,23,,none,false,Graduated College,1573205625363,6,male,german,FALSE,TRUE,Belgium has rainforests.,FALSE,Fri Nov 08 2019 10:29:18 GMT+0100 (Central European Standard Time),1573205358218,4.452416666666666,main_trials,22,special,4
272,,1703,23,,none,false,Graduated College,1573205625363,6,male,german,FALSE,TRUE,London is the capital of Asia.,FALSE,Fri Nov 08 2019 10:29:18 GMT+0100 (Central European Standard Time),1573205358218,4.452416666666666,main_trials,23,filler,none
272,,1559,23,,none,true,Graduated College,1573205625363,6,male,german,FALSE,TRUE,Canada is a democracy.,TRUE,Fri Nov 08 2019 10:29:18 GMT+0100 (Central European Standard Time),1573205358218,4.452416666666666,main_trials,24,special,2
271,,3081,23,,none,false,Graduated High School,1573200752555,6,male,"Arabic, French",FALSE,TRUE,Spain is a country in Asia.,FALSE,Fri Nov 08 2019 09:08:39 GMT+0100 (Central European Standard Time),1573200519547,3.8834666666666666,practice_trials,1,practice,undefined
271,,4518,23,,none,false,Graduated High School,1573200752555,6,male,"Arabic, French",FALSE,TRUE,World War II was a global war that lasted from 1914 to 1918.,FALSE,Fri Nov 08 2019 09:08:39 GMT+0100 (Central European Standard Time),1573200519547,3.8834666666666666,practice_trials,2,practice,undefined
271,,11161,23,,none,true,Graduated High School,1573200752555,6,male,"Arabic, French",FALSE,TRUE,"William Shakespeare was an English poet, playwright and actor, regarded as the greatest writer in the English language.",TRUE,Fri Nov 08 2019 09:08:39 GMT+0100 (Central European Standard Time),1573200519547,3.8834666666666666,practice_trials,3,practice,undefined
271,,4315,23,,none,true,Graduated High School,1573200752555,6,male,"Arabic, French",FALSE,TRUE,Alexander Bell invented the telephone.,FALSE,Fri Nov 08 2019 09:08:39 GMT+0100 (Central European Standard Time),1573200519547,3.8834666666666666,practice_trials,4,practice,undefined
271,,3116,23,,none,true,Graduated High School,1573200752555,6,male,"Arabic, French",FALSE,TRUE,Normally there are 32 teeth in the adult human body.,TRUE,Fri Nov 08 2019 09:08:39 GMT+0100 (Central European Standard Time),1573200519547,3.8834666666666666,practice_trials,5,practice,undefined
271,,4365,23,,none,false,Graduated High School,1573200752555,6,male,"Arabic, French",FALSE,TRUE,China is the smallest country in South America.,FALSE,Fri Nov 08 2019 09:08:39 GMT+0100 (Central European Standard Time),1573200519547,3.8834666666666666,main_trials,1,filler,none
271,,6939,23,,none,true,Graduated High School,1573200752555,6,male,"Arabic, French",FALSE,TRUE,The Sun is in the centre of the Solar System.,TRUE,Fri Nov 08 2019 09:08:39 GMT+0100 (Central European Standard Time),1573200519547,3.8834666666666666,main_trials,2,filler,none
271,,4554,23,,6,false,Graduated High School,1573200752555,6,male,"Arabic, French",FALSE,TRUE,The volcanoes of Germany do not dominate the landscape.,TRUE,Fri Nov 08 2019 09:08:39 GMT+0100 (Central European Standard Time),1573200519547,3.8834666666666666,main_trials,3,main,5
271,,9038,23,,none,true,Graduated High School,1573200752555,6,male,"Arabic, French",FALSE,TRUE,"The Sydney Opera House, built in Australia’s biggest city, is famous for its roof’s architecture.",TRUE,Fri Nov 08 2019 09:08:39 GMT+0100 (Central European Standard Time),1573200519547,3.8834666666666666,main_trials,4,filler,none
271,,18186,23,,none,true,Graduated High School,1573200752555,6,male,"Arabic, French",FALSE,TRUE,The brain is made up of very special cells called neurons.,TRUE,Fri Nov 08 2019 09:08:39 GMT+0100 (Central European Standard Time),1573200519547,3.8834666666666666,main_trials,5,filler,none
271,,3488,23,,none,false,Graduated High School,1573200752555,6,male,"Arabic, French",FALSE,TRUE,Manchester United is a French football team based in Paris.,FALSE,Fri Nov 08 2019 09:08:39 GMT+0100 (Central European Standard Time),1573200519547,3.8834666666666666,main_trials,6,filler,none
271,,4196,23,,1,false,Graduated High School,1573200752555,6,male,"Arabic, French",FALSE,TRUE,"Canada has an emperor, and he is fond of sushi.",FALSE,Fri Nov 08 2019 09:08:39 GMT+0100 (Central European Standard Time),1573200519547,3.8834666666666666,main_trials,7,main,2
271,,11040,23,,none,true,Graduated High School,1573200752555,6,male,"Arabic, French",FALSE,TRUE,Water is of major importance to all living organisms.,TRUE,Fri Nov 08 2019 09:08:39 GMT+0100 (Central European Standard Time),1573200519547,3.8834666666666666,main_trials,8,filler,none
271,,11436,23,,9,false,Graduated High School,1573200752555,6,male,"Arabic, French",FALSE,TRUE,"The Pope’s wife, she did not invite Angela Merkel for dinner.",TRUE,Fri Nov 08 2019 09:08:39 GMT+0100 (Central European Standard Time),1573200519547,3.8834666666666666,main_trials,9,main,3
271,,8115,23,,none,true,Graduated High School,1573200752555,6,male,"Arabic, French",FALSE,TRUE,One molecule of water (H2O) has two hydrogen atoms.,TRUE,Fri Nov 08 2019 09:08:39 GMT+0100 (Central European Standard Time),1573200519547,3.8834666666666666,main_trials,10,filler,none
271,,2530,23,,none,false,Graduated High School,1573200752555,6,male,"Arabic, French",FALSE,TRUE,Germany has volcanoes.,TRUE,Fri Nov 08 2019 09:08:39 GMT+0100 (Central European Standard Time),1573200519547,3.8834666666666666,main_trials,11,special,5
271,,5502,23,,none,true,Graduated High School,1573200752555,6,male,"Arabic, French",FALSE,TRUE,"The simplest, functioning part of an organism is a cell.",TRUE,Fri Nov 08 2019 09:08:39 GMT+0100 (Central European Standard Time),1573200519547,3.8834666666666666,main_trials,12,filler,none
271,,6655,23,,10,false,Graduated High School,1573200752555,6,male,"Arabic, French",FALSE,TRUE,"Emmanuel Macron, he did not call the King of France last night.",TRUE,Fri Nov 08 2019 09:08:39 GMT+0100 (Central European Standard Time),1573200519547,3.8834666666666666,main_trials,13,main,1
271,,6593,23,,none,false,Graduated High School,1573200752555,6,male,"Arabic, French",FALSE,TRUE,Planet Earth is the sixth planet from the Sun.,TRUE,Fri Nov 08 2019 09:08:39 GMT+0100 (Central European Standard Time),1573200519547,3.8834666666666666,main_trials,14,filler,none
271,,2254,23,,none,true,Graduated High School,1573200752555,6,male,"Arabic, French",FALSE,TRUE,Email is a method of exchanging messages.,TRUE,Fri Nov 08 2019 09:08:39 GMT+0100 (Central European Standard Time),1573200519547,3.8834666666666666,main_trials,15,filler,none
271,,1630,23,,none,true,Graduated High School,1573200752555,6,male,"Arabic, French",FALSE,TRUE,Canada is a democracy.,TRUE,Fri Nov 08 2019 09:08:39 GMT+0100 (Central European Standard Time),1573200519547,3.8834666666666666,main_trials,16,special,2
271,,7983,23,,none,true,Graduated High School,1573200752555,6,male,"Arabic, French",FALSE,TRUE,The town of Pisa in Italy is famous for its Leaning Tower of Pisa.,FALSE,Fri Nov 08 2019 09:08:39 GMT+0100 (Central European Standard Time),1573200519547,3.8834666666666666,main_trials,17,filler,none
271,,5094,23,,none,true,Graduated High School,1573200752555,6,male,"Arabic, French",FALSE,TRUE,The Pope is currently not married.,TRUE,Fri Nov 08 2019 09:08:39 GMT+0100 (Central European Standard Time),1573200519547,3.8834666666666666,main_trials,18,special,3
271,,16329,23,,0,false,Graduated High School,1573200752555,6,male,"Arabic, French",FALSE,TRUE,The Belgian rainforest provides a habitat for many species.,FALSE,Fri Nov 08 2019 09:08:39 GMT+0100 (Central European Standard Time),1573200519547,3.8834666666666666,main_trials,19,main,4
271,,3850,23,,none,true,Graduated High School,1573200752555,6,male,"Arabic, French",FALSE,TRUE,Currywurst is a popular fast food in Germany.,TRUE,Fri Nov 08 2019 09:08:39 GMT+0100 (Central European Standard Time),1573200519547,3.8834666666666666,main_trials,20,filler,none
271,,6579,23,,none,true,Graduated High School,1573200752555,6,male,"Arabic, French",FALSE,TRUE,Test of English as a Foreign Language (TOEFL) is a standardized test to measure the English language ability of non-native speakers.,TRUE,Fri Nov 08 2019 09:08:39 GMT+0100 (Central European Standard Time),1573200519547,3.8834666666666666,main_trials,21,filler,none
271,,2459,23,,none,false,Graduated High School,1573200752555,6,male,"Arabic, French",FALSE,TRUE,France has a king.,FALSE,Fri Nov 08 2019 09:08:39 GMT+0100 (Central European Standard Time),1573200519547,3.8834666666666666,main_trials,22,special,1
271,,2254,23,,none,true,Graduated High School,1573200752555,6,male,"Arabic, French",FALSE,TRUE,The president of the USA is called Donald Trump.,TRUE,Fri Nov 08 2019 09:08:39 GMT+0100 (Central European Standard Time),1573200519547,3.8834666666666666,main_trials,23,filler,none
271,,2157,23,,none,false,Graduated High School,1573200752555,6,male,"Arabic, French",FALSE,TRUE,Belgium has rainforests.,FALSE,Fri Nov 08 2019 09:08:39 GMT+0100 (Central European Standard Time),1573200519547,3.8834666666666666,main_trials,24,special,4
270,,3310,21,,none,false,Graduated High School,1573192280943,6,female,german,FALSE,TRUE,Spain is a country in Asia.,FALSE,Fri Nov 08 2019 06:46:35 GMT+0100 (CET),1573191995852,4.751516666666666,practice_trials,1,practice,undefined
270,,4554,21,,none,true,Graduated High School,1573192280943,6,female,german,FALSE,TRUE,Alexander Bell invented the telephone.,FALSE,Fri Nov 08 2019 06:46:35 GMT+0100 (CET),1573191995852,4.751516666666666,practice_trials,2,practice,undefined
270,,5031,21,,none,true,Graduated High School,1573192280943,6,female,german,FALSE,TRUE,"William Shakespeare was an English poet, playwright and actor, regarded as the greatest writer in the English language.",TRUE,Fri Nov 08 2019 06:46:35 GMT+0100 (CET),1573191995852,4.751516666666666,practice_trials,3,practice,undefined
270,,2579,21,,none,true,Graduated High School,1573192280943,6,female,german,FALSE,TRUE,Normally there are 32 teeth in the adult human body.,TRUE,Fri Nov 08 2019 06:46:35 GMT+0100 (CET),1573191995852,4.751516666666666,practice_trials,4,practice,undefined
270,,12873,21,,none,false,Graduated High School,1573192280943,6,female,german,FALSE,TRUE,World War II was a global war that lasted from 1914 to 1918.,TRUE,Fri Nov 08 2019 06:46:35 GMT+0100 (CET),1573191995852,4.751516666666666,practice_trials,5,practice,undefined
270,,9290,21,,none,true,Graduated High School,1573192280943,6,female,german,FALSE,TRUE,"The simplest, functioning part of an organism is a cell.",TRUE,Fri Nov 08 2019 06:46:35 GMT+0100 (CET),1573191995852,4.751516666666666,main_trials,1,filler,none
270,,6723,21,,none,true,Graduated High School,1573192280943,6,female,german,FALSE,TRUE,Antarctica is a continent covered almost completely by ice.,TRUE,Fri Nov 08 2019 06:46:35 GMT+0100 (CET),1573191995852,4.751516666666666,main_trials,2,filler,none
270,,10993,21,,9,false,Graduated High School,1573192280943,6,female,german,FALSE,TRUE,"The Pope’s wife, she did not invite Angela Merkel for dinner.",FALSE,Fri Nov 08 2019 06:46:35 GMT+0100 (CET),1573191995852,4.751516666666666,main_trials,3,main,3
270,,3970,21,,none,false,Graduated High School,1573192280943,6,female,german,FALSE,TRUE,The University of Oxford is a business that sells mobile phones.,FALSE,Fri Nov 08 2019 06:46:35 GMT+0100 (CET),1573191995852,4.751516666666666,main_trials,4,filler,none
270,,3856,21,,none,true,Graduated High School,1573192280943,6,female,german,FALSE,TRUE,The capital city of Japan is Tokyo.,TRUE,Fri Nov 08 2019 06:46:35 GMT+0100 (CET),1573191995852,4.751516666666666,main_trials,5,filler,none
270,,2897,21,,none,true,Graduated High School,1573192280943,6,female,german,FALSE,TRUE,Stephen William Hawking was a famous physicist.,TRUE,Fri Nov 08 2019 06:46:35 GMT+0100 (CET),1573191995852,4.751516666666666,main_trials,6,filler,none
270,,6518,21,,0,false,Graduated High School,1573192280943,6,female,german,FALSE,TRUE,The Belgian rainforest provides a habitat for many species.,TRUE,Fri Nov 08 2019 06:46:35 GMT+0100 (CET),1573191995852,4.751516666666666,main_trials,7,main,4
270,,5005,21,,none,true,Graduated High School,1573192280943,6,female,german,FALSE,TRUE,"English is the main language in Australia, Britain and New Zealand.",TRUE,Fri Nov 08 2019 06:46:35 GMT+0100 (CET),1573191995852,4.751516666666666,main_trials,8,filler,none
270,,9623,21,,10,false,Graduated High School,1573192280943,6,female,german,FALSE,TRUE,"Dresden, it is not the home of the Emperor of Canada for the summer.",TRUE,Fri Nov 08 2019 06:46:35 GMT+0100 (CET),1573191995852,4.751516666666666,main_trials,9,main,2
270,,6563,21,,none,true,Graduated High School,1573192280943,6,female,german,FALSE,TRUE,The Great Wall is one of the seven wonders of the world.,FALSE,Fri Nov 08 2019 06:46:35 GMT+0100 (CET),1573191995852,4.751516666666666,main_trials,10,filler,none
270,,6823,21,,none,true,Graduated High School,1573192280943,6,female,german,FALSE,TRUE,The Pope is currently not married.,TRUE,Fri Nov 08 2019 06:46:35 GMT+0100 (CET),1573191995852,4.751516666666666,main_trials,11,special,3
270,,5953,21,,none,true,Graduated High School,1573192280943,6,female,german,FALSE,TRUE,Canada is a country located in North America.,TRUE,Fri Nov 08 2019 06:46:35 GMT+0100 (CET),1573191995852,4.751516666666666,main_trials,12,filler,none
270,,3153,21,,1,false,Graduated High School,1573192280943,6,female,german,FALSE,TRUE,"France has a king, and he is bald.",FALSE,Fri Nov 08 2019 06:46:35 GMT+0100 (CET),1573191995852,4.751516666666666,main_trials,13,main,1
270,,9550,21,,none,true,Graduated High School,1573192280943,6,female,german,FALSE,TRUE,"Agatha Christie was an English writer, known for her detective novels, particularly those revolving around her fictional detectives Hercule Poirot and Miss Marple.",FALSE,Fri Nov 08 2019 06:46:35 GMT+0100 (CET),1573191995852,4.751516666666666,main_trials,14,filler,none
270,,6617,21,,none,false,Graduated High School,1573192280943,6,female,german,FALSE,TRUE,People love the polar bears in Australia.,FALSE,Fri Nov 08 2019 06:46:35 GMT+0100 (CET),1573191995852,4.751516666666666,main_trials,15,filler,none
270,,2154,21,,none,false,Graduated High School,1573192280943,6,female,german,FALSE,TRUE,Belgium has rainforests.,FALSE,Fri Nov 08 2019 06:46:35 GMT+0100 (CET),1573191995852,4.751516666666666,main_trials,16,special,4
270,,9595,21,,none,true,Graduated High School,1573192280943,6,female,german,FALSE,TRUE,"The statue of Jesus Christ is a famous sightseeing attraction in the city of Rio de Janeiro, Brazil.",FALSE,Fri Nov 08 2019 06:46:35 GMT+0100 (CET),1573191995852,4.751516666666666,main_trials,17,filler,none
270,,1988,21,,none,true,Graduated High School,1573192280943,6,female,german,FALSE,TRUE,Canada is a democracy.,TRUE,Fri Nov 08 2019 06:46:35 GMT+0100 (CET),1573191995852,4.751516666666666,main_trials,18,special,2
270,,4200,21,,6,false,Graduated High School,1573192280943,6,female,german,FALSE,TRUE,The volcanoes of Germany do not dominate the landscape.,FALSE,Fri Nov 08 2019 06:46:35 GMT+0100 (CET),1573191995852,4.751516666666666,main_trials,19,main,5
270,,4290,21,,none,true,Graduated High School,1573192280943,6,female,german,FALSE,TRUE,The Sahara desert in Africa is the largest desert in the world.,TRUE,Fri Nov 08 2019 06:46:35 GMT+0100 (CET),1573191995852,4.751516666666666,main_trials,20,filler,none
270,,6273,21,,none,true,Graduated High School,1573192280943,6,female,german,FALSE,TRUE,One molecule of water (H2O) has two hydrogen atoms.,TRUE,Fri Nov 08 2019 06:46:35 GMT+0100 (CET),1573191995852,4.751516666666666,main_trials,21,filler,none
270,,1323,21,,none,false,Graduated High School,1573192280943,6,female,german,FALSE,TRUE,France has a king.,FALSE,Fri Nov 08 2019 06:46:35 GMT+0100 (CET),1573191995852,4.751516666666666,main_trials,22,special,1
270,,11759,21,,none,true,Graduated High School,1573192280943,6,female,german,FALSE,TRUE,There are more than 2 countries in the United Nations.,FALSE,Fri Nov 08 2019 06:46:35 GMT+0100 (CET),1573191995852,4.751516666666666,main_trials,23,filler,none
270,,1216,21,,none,false,Graduated High School,1573192280943,6,female,german,FALSE,TRUE,Germany has volcanoes.,FALSE,Fri Nov 08 2019 06:46:35 GMT+0100 (CET),1573191995852,4.751516666666666,main_trials,24,special,5
269,,6225,19,,none,true,Graduated High School,1573169394721,6,male,"German, English",FALSE,TRUE,"William Shakespeare was an English poet, playwright and actor, regarded as the greatest writer in the English language.",TRUE,Fri Nov 08 2019 00:26:26 GMT+0100 (Mitteleuropäische Normalzeit),1573169186002,3.47865,practice_trials,1,practice,undefined
269,,6355,19,,none,false,Graduated High School,1573169394721,6,male,"German, English",FALSE,TRUE,Spain is a country in Asia.,FALSE,Fri Nov 08 2019 00:26:26 GMT+0100 (Mitteleuropäische Normalzeit),1573169186002,3.47865,practice_trials,2,practice,undefined
269,,6409,19,,none,false,Graduated High School,1573169394721,6,male,"German, English",FALSE,TRUE,World War II was a global war that lasted from 1914 to 1918.,FALSE,Fri Nov 08 2019 00:26:26 GMT+0100 (Mitteleuropäische Normalzeit),1573169186002,3.47865,practice_trials,3,practice,undefined
269,,9816,19,,none,true,Graduated High School,1573169394721,6,male,"German, English",FALSE,TRUE,Alexander Bell invented the telephone.,FALSE,Fri Nov 08 2019 00:26:26 GMT+0100 (Mitteleuropäische Normalzeit),1573169186002,3.47865,practice_trials,4,practice,undefined
269,,4267,19,,none,true,Graduated High School,1573169394721,6,male,"German, English",FALSE,TRUE,Normally there are 32 teeth in the adult human body.,TRUE,Fri Nov 08 2019 00:26:26 GMT+0100 (Mitteleuropäische Normalzeit),1573169186002,3.47865,practice_trials,5,practice,undefined
269,,3069,19,,none,false,Graduated High School,1573169394721,6,male,"German, English",FALSE,TRUE,Vatican City is the world's largest country by land area.,FALSE,Fri Nov 08 2019 00:26:26 GMT+0100 (Mitteleuropäische Normalzeit),1573169186002,3.47865,main_trials,1,filler,none
269,,3309,19,,none,true,Graduated High School,1573169394721,6,male,"German, English",FALSE,TRUE,Square root of 16 is 4.,TRUE,Fri Nov 08 2019 00:26:26 GMT+0100 (Mitteleuropäische Normalzeit),1573169186002,3.47865,main_trials,2,filler,none
269,,15097,19,,10,false,Graduated High School,1573169394721,6,male,"German, English",FALSE,TRUE,"Angela Merkel, she was not invited by the Pope’s wife for dinner.",TRUE,Fri Nov 08 2019 00:26:26 GMT+0100 (Mitteleuropäische Normalzeit),1573169186002,3.47865,main_trials,3,main,3
269,,4195,19,,none,true,Graduated High School,1573169394721,6,male,"German, English",FALSE,TRUE,Johnny Depp is an American actor who took part in the ‘Pirates of the Caribbean’ movies.,TRUE,Fri Nov 08 2019 00:26:26 GMT+0100 (Mitteleuropäische Normalzeit),1573169186002,3.47865,main_trials,4,filler,none
269,,2763,19,,none,true,Graduated High School,1573169394721,6,male,"German, English",FALSE,TRUE,Currywurst is a popular fast food in Germany.,TRUE,Fri Nov 08 2019 00:26:26 GMT+0100 (Mitteleuropäische Normalzeit),1573169186002,3.47865,main_trials,5,filler,none
269,,6745,19,,none,true,Graduated High School,1573169394721,6,male,"German, English",FALSE,TRUE,The Grand Canyon in Arizona (USA) is the largest canyon in the world.,FALSE,Fri Nov 08 2019 00:26:26 GMT+0100 (Mitteleuropäische Normalzeit),1573169186002,3.47865,main_trials,6,filler,none
269,,2701,19,,1,false,Graduated High School,1573169394721,6,male,"German, English",FALSE,TRUE,"There are volcanoes in Germany, and they dominate the landscape.",FALSE,Fri Nov 08 2019 00:26:26 GMT+0100 (Mitteleuropäische Normalzeit),1573169186002,3.47865,main_trials,7,main,5
269,,5044,19,,none,true,Graduated High School,1573169394721,6,male,"German, English",FALSE,TRUE,Valentine's Day is celebrated in many ways worldwide.,TRUE,Fri Nov 08 2019 00:26:26 GMT+0100 (Mitteleuropäische Normalzeit),1573169186002,3.47865,main_trials,8,filler,none
269,,28172,19,,6,false,Graduated High School,1573169394721,6,male,"German, English",FALSE,TRUE,The Emperor of Canada isn’t fond of sushi.,FALSE,Fri Nov 08 2019 00:26:26 GMT+0100 (Mitteleuropäische Normalzeit),1573169186002,3.47865,main_trials,9,main,2
269,,11913,19,,none,false,Graduated High School,1573169394721,6,male,"German, English",FALSE,TRUE,India is the smallest country in Europe.,FALSE,Fri Nov 08 2019 00:26:26 GMT+0100 (Mitteleuropäische Normalzeit),1573169186002,3.47865,main_trials,10,filler,none
269,,3894,19,,none,true,Graduated High School,1573169394721,6,male,"German, English",FALSE,TRUE,The Pope is currently not married.,TRUE,Fri Nov 08 2019 00:26:26 GMT+0100 (Mitteleuropäische Normalzeit),1573169186002,3.47865,main_trials,11,special,3
269,,3445,19,,none,true,Graduated High School,1573169394721,6,male,"German, English",FALSE,TRUE,The Great Wall is one of the seven wonders of the world.,TRUE,Fri Nov 08 2019 00:26:26 GMT+0100 (Mitteleuropäische Normalzeit),1573169186002,3.47865,main_trials,12,filler,none
269,,6334,19,,9,false,Graduated High School,1573169394721,6,male,"German, English",FALSE,TRUE,"The King of France, he did not call Emmanuel Macron last night.",TRUE,Fri Nov 08 2019 00:26:26 GMT+0100 (Mitteleuropäische Normalzeit),1573169186002,3.47865,main_trials,13,main,1
269,,6223,19,,none,true,Graduated High School,1573169394721,6,male,"German, English",FALSE,TRUE,The Sahara desert in Africa is the largest desert in the world.,TRUE,Fri Nov 08 2019 00:26:26 GMT+0100 (Mitteleuropäische Normalzeit),1573169186002,3.47865,main_trials,14,filler,none
269,,2854,19,,none,true,Graduated High School,1573169394721,6,male,"German, English",FALSE,TRUE,The University of Edinburgh is located in Great Britain.,TRUE,Fri Nov 08 2019 00:26:26 GMT+0100 (Mitteleuropäische Normalzeit),1573169186002,3.47865,main_trials,15,filler,none
269,,1727,19,,none,false,Graduated High School,1573169394721,6,male,"German, English",FALSE,TRUE,Germany has volcanoes.,FALSE,Fri Nov 08 2019 00:26:26 GMT+0100 (Mitteleuropäische Normalzeit),1573169186002,3.47865,main_trials,16,special,5
269,,5728,19,,none,true,Graduated High School,1573169394721,6,male,"German, English",FALSE,TRUE,Antarctica is a continent covered almost completely by ice.,TRUE,Fri Nov 08 2019 00:26:26 GMT+0100 (Mitteleuropäische Normalzeit),1573169186002,3.47865,main_trials,17,filler,none
269,,2760,19,,none,true,Graduated High School,1573169394721,6,male,"German, English",FALSE,TRUE,Canada is a democracy.,TRUE,Fri Nov 08 2019 00:26:26 GMT+0100 (Mitteleuropäische Normalzeit),1573169186002,3.47865,main_trials,18,special,2
269,,5965,19,,0,false,Graduated High School,1573169394721,6,male,"German, English",FALSE,TRUE,The Belgian rainforest provides a habitat for many species.,FALSE,Fri Nov 08 2019 00:26:26 GMT+0100 (Mitteleuropäische Normalzeit),1573169186002,3.47865,main_trials,19,main,4
269,,6631,19,,none,true,Graduated High School,1573169394721,6,male,"German, English",FALSE,TRUE,An earthquake is the result of the sudden movement of the earth’s tectonic plates.,TRUE,Fri Nov 08 2019 00:26:26 GMT+0100 (Mitteleuropäische Normalzeit),1573169186002,3.47865,main_trials,20,filler,none
269,,2565,19,,none,true,Graduated High School,1573169394721,6,male,"German, English",FALSE,TRUE,Water boils at 100 degree C.,TRUE,Fri Nov 08 2019 00:26:26 GMT+0100 (Mitteleuropäische Normalzeit),1573169186002,3.47865,main_trials,21,filler,none
269,,2509,19,,none,false,Graduated High School,1573169394721,6,male,"German, English",FALSE,TRUE,France has a king.,FALSE,Fri Nov 08 2019 00:26:26 GMT+0100 (Mitteleuropäische Normalzeit),1573169186002,3.47865,main_trials,22,special,1
269,,3168,19,,none,true,Graduated High School,1573169394721,6,male,"German, English",FALSE,TRUE,Dinosaurs became extinct millions of years ago.,TRUE,Fri Nov 08 2019 00:26:26 GMT+0100 (Mitteleuropäische Normalzeit),1573169186002,3.47865,main_trials,23,filler,none
269,,1416,19,,none,false,Graduated High School,1573169394721,6,male,"German, English",FALSE,TRUE,Belgium has rainforests.,FALSE,Fri Nov 08 2019 00:26:26 GMT+0100 (Mitteleuropäische Normalzeit),1573169186002,3.47865,main_trials,24,special,4
268,,28392,,,none,true,,1573168002291,6,,,FALSE,TRUE,Normally there are 32 teeth in the adult human body.,TRUE,Fri Nov 08 2019 00:01:45 GMT+0100 (Mitteleuropäische Normalzeit),1573167705268,4.950383333333333,practice_trials,1,practice,undefined
268,,11175,,,none,true,,1573168002291,6,,,FALSE,TRUE,"William Shakespeare was an English poet, playwright and actor, regarded as the greatest writer in the English language.",TRUE,Fri Nov 08 2019 00:01:45 GMT+0100 (Mitteleuropäische Normalzeit),1573167705268,4.950383333333333,practice_trials,2,practice,undefined
268,,4233,,,none,false,,1573168002291,6,,,FALSE,TRUE,Spain is a country in Asia.,FALSE,Fri Nov 08 2019 00:01:45 GMT+0100 (Mitteleuropäische Normalzeit),1573167705268,4.950383333333333,practice_trials,3,practice,undefined
268,,5294,,,none,true,,1573168002291,6,,,FALSE,TRUE,Alexander Bell invented the telephone.,FALSE,Fri Nov 08 2019 00:01:45 GMT+0100 (Mitteleuropäische Normalzeit),1573167705268,4.950383333333333,practice_trials,4,practice,undefined
268,,24749,,,none,false,,1573168002291,6,,,FALSE,TRUE,World War II was a global war that lasted from 1914 to 1918.,FALSE,Fri Nov 08 2019 00:01:45 GMT+0100 (Mitteleuropäische Normalzeit),1573167705268,4.950383333333333,practice_trials,5,practice,undefined
268,,7304,,,none,true,,1573168002291,6,,,FALSE,TRUE,The town of Pisa in Italy is famous for its Leaning Tower of Pisa.,TRUE,Fri Nov 08 2019 00:01:45 GMT+0100 (Mitteleuropäische Normalzeit),1573167705268,4.950383333333333,main_trials,1,filler,none
268,,5892,,,none,true,,1573168002291,6,,,FALSE,TRUE,The Solar System includes the planet Earth.,TRUE,Fri Nov 08 2019 00:01:45 GMT+0100 (Mitteleuropäische Normalzeit),1573167705268,4.950383333333333,main_trials,2,filler,none
268,,5546,,,1,false,,1573168002291,6,,,FALSE,TRUE,"France has a king, and he is bald.",FALSE,Fri Nov 08 2019 00:01:45 GMT+0100 (Mitteleuropäische Normalzeit),1573167705268,4.950383333333333,main_trials,3,main,1
268,,2859,,,none,true,,1573168002291,6,,,FALSE,TRUE,London is famous for Big Ben and the Queen.,TRUE,Fri Nov 08 2019 00:01:45 GMT+0100 (Mitteleuropäische Normalzeit),1573167705268,4.950383333333333,main_trials,4,filler,none
268,,5450,,,none,false,,1573168002291,6,,,FALSE,TRUE,Switzerland is a member of the European Union.,TRUE,Fri Nov 08 2019 00:01:45 GMT+0100 (Mitteleuropäische Normalzeit),1573167705268,4.950383333333333,main_trials,5,filler,none
268,,6827,,,none,true,,1573168002291,6,,,FALSE,TRUE,In the German language every noun has a gender.,TRUE,Fri Nov 08 2019 00:01:45 GMT+0100 (Mitteleuropäische Normalzeit),1573167705268,4.950383333333333,main_trials,6,filler,none
268,,10398,,,9,false,,1573168002291,6,,,FALSE,TRUE,"The Belgian rainforest, it is not the favorite nature spot of Donald Trump.",FALSE,Fri Nov 08 2019 00:01:45 GMT+0100 (Mitteleuropäische Normalzeit),1573167705268,4.950383333333333,main_trials,7,main,4
268,,10399,,,none,true,,1573168002291,6,,,FALSE,TRUE,"The Bermuda Triangle, is a region in the Atlantic Ocean, where a number of aircraft and ships are said to have disappeared under mysterious circumstances.",TRUE,Fri Nov 08 2019 00:01:45 GMT+0100 (Mitteleuropäische Normalzeit),1573167705268,4.950383333333333,main_trials,8,filler,none
268,,4772,,,0,false,,1573168002291,6,,,FALSE,TRUE,The Pope’s wife is a lawyer.,FALSE,Fri Nov 08 2019 00:01:45 GMT+0100 (Mitteleuropäische Normalzeit),1573167705268,4.950383333333333,main_trials,9,main,3
268,,7124,,,none,true,,1573168002291,6,,,FALSE,TRUE,Trees absorb carbon dioxide and release oxygen.,TRUE,Fri Nov 08 2019 00:01:45 GMT+0100 (Mitteleuropäische Normalzeit),1573167705268,4.950383333333333,main_trials,10,filler,none
268,,2557,,,none,false,,1573168002291,6,,,FALSE,TRUE,France has a king.,FALSE,Fri Nov 08 2019 00:01:45 GMT+0100 (Mitteleuropäische Normalzeit),1573167705268,4.950383333333333,main_trials,11,special,1
268,,9666,,,none,true,,1573168002291,6,,,FALSE,TRUE,Test of English as a Foreign Language (TOEFL) is a standardized test to measure the English language ability of non-native speakers.,TRUE,Fri Nov 08 2019 00:01:45 GMT+0100 (Mitteleuropäische Normalzeit),1573167705268,4.950383333333333,main_trials,12,filler,none
268,,11043,,,10,false,,1573168002291,6,,,FALSE,TRUE,"Leipzig, it is not threatened by the volcanoes of Germany.",FALSE,Fri Nov 08 2019 00:01:45 GMT+0100 (Mitteleuropäische Normalzeit),1573167705268,4.950383333333333,main_trials,13,main,5
268,,6324,,,none,true,,1573168002291,6,,,FALSE,TRUE,The brain needs a constant supply of oxygen to perform basic functions.,TRUE,Fri Nov 08 2019 00:01:45 GMT+0100 (Mitteleuropäische Normalzeit),1573167705268,4.950383333333333,main_trials,14,filler,none
268,,5884,,,none,true,,1573168002291,6,,,FALSE,TRUE,Harry Potter is a series of fantasy novels written by J. K. Rowling.,TRUE,Fri Nov 08 2019 00:01:45 GMT+0100 (Mitteleuropäische Normalzeit),1573167705268,4.950383333333333,main_trials,15,filler,none
268,,3385,,,none,false,,1573168002291,6,,,FALSE,TRUE,Belgium has rainforests.,FALSE,Fri Nov 08 2019 00:01:45 GMT+0100 (Mitteleuropäische Normalzeit),1573167705268,4.950383333333333,main_trials,16,special,4
268,,4365,,,none,true,,1573168002291,6,,,FALSE,TRUE,Water boils at 100 degree C.,TRUE,Fri Nov 08 2019 00:01:45 GMT+0100 (Mitteleuropäische Normalzeit),1573167705268,4.950383333333333,main_trials,17,filler,none
268,,3404,,,none,true,,1573168002291,6,,,FALSE,TRUE,The Pope is currently not married.,FALSE,Fri Nov 08 2019 00:01:45 GMT+0100 (Mitteleuropäische Normalzeit),1573167705268,4.950383333333333,main_trials,18,special,3
268,,7201,,,6,false,,1573168002291,6,,,FALSE,TRUE,The Emperor of Canada isn’t fond of sushi.,FALSE,Fri Nov 08 2019 00:01:45 GMT+0100 (Mitteleuropäische Normalzeit),1573167705268,4.950383333333333,main_trials,19,main,2
268,,8159,,,none,true,,1573168002291,6,,,FALSE,TRUE,The Earth was once believed to be the centre of the universe.,TRUE,Fri Nov 08 2019 00:01:45 GMT+0100 (Mitteleuropäische Normalzeit),1573167705268,4.950383333333333,main_trials,20,filler,none
268,,10548,,,none,false,,1573168002291,6,,,FALSE,TRUE,The University of Oxford is a business that sells mobile phones.,FALSE,Fri Nov 08 2019 00:01:45 GMT+0100 (Mitteleuropäische Normalzeit),1573167705268,4.950383333333333,main_trials,21,filler,none
268,,2333,,,none,false,,1573168002291,6,,,FALSE,TRUE,Germany has volcanoes.,FALSE,Fri Nov 08 2019 00:01:45 GMT+0100 (Mitteleuropäische Normalzeit),1573167705268,4.950383333333333,main_trials,22,special,5
268,,13458,,,none,true,,1573168002291,6,,,FALSE,TRUE,Lower Saxony is a German state situated in northwestern Germany.,TRUE,Fri Nov 08 2019 00:01:45 GMT+0100 (Mitteleuropäische Normalzeit),1573167705268,4.950383333333333,main_trials,23,filler,none
268,,7398,,,none,true,,1573168002291,6,,,FALSE,TRUE,Canada is a democracy.,TRUE,Fri Nov 08 2019 00:01:45 GMT+0100 (Mitteleuropäische Normalzeit),1573167705268,4.950383333333333,main_trials,24,special,2
267,,19132,22,,none,true,Graduated High School,1573165364673,6,male,German,FALSE,TRUE,Normally there are 32 teeth in the adult human body.,TRUE,Thu Nov 07 2019 23:16:37 GMT+0100 (Mitteleuropäische Zeit),1573164997198,6.124583333333334,practice_trials,1,practice,undefined
267,,13687,22,,none,false,Graduated High School,1573165364673,6,male,German,FALSE,TRUE,World War II was a global war that lasted from 1914 to 1918.,TRUE,Thu Nov 07 2019 23:16:37 GMT+0100 (Mitteleuropäische Zeit),1573164997198,6.124583333333334,practice_trials,2,practice,undefined
267,,3963,22,,none,false,Graduated High School,1573165364673,6,male,German,FALSE,TRUE,Spain is a country in Asia.,FALSE,Thu Nov 07 2019 23:16:37 GMT+0100 (Mitteleuropäische Zeit),1573164997198,6.124583333333334,practice_trials,3,practice,undefined
267,,4307,22,,none,true,Graduated High School,1573165364673,6,male,German,FALSE,TRUE,Alexander Bell invented the telephone.,FALSE,Thu Nov 07 2019 23:16:37 GMT+0100 (Mitteleuropäische Zeit),1573164997198,6.124583333333334,practice_trials,4,practice,undefined
267,,16117,22,,none,true,Graduated High School,1573165364673,6,male,German,FALSE,TRUE,"William Shakespeare was an English poet, playwright and actor, regarded as the greatest writer in the English language.",TRUE,Thu Nov 07 2019 23:16:37 GMT+0100 (Mitteleuropäische Zeit),1573164997198,6.124583333333334,practice_trials,5,practice,undefined
267,,6239,22,,none,true,Graduated High School,1573165364673,6,male,German,FALSE,TRUE,Three is a prime number.,TRUE,Thu Nov 07 2019 23:16:37 GMT+0100 (Mitteleuropäische Zeit),1573164997198,6.124583333333334,main_trials,1,filler,none
267,,8989,22,,none,false,Graduated High School,1573165364673,6,male,German,FALSE,TRUE,Elvis Presley is one of the most popular musicians in this decade.,FALSE,Thu Nov 07 2019 23:16:37 GMT+0100 (Mitteleuropäische Zeit),1573164997198,6.124583333333334,main_trials,2,filler,none
267,,37996,22,,9,false,Graduated High School,1573165364673,6,male,German,FALSE,TRUE,"The Pope’s wife, she did not invite Angela Merkel for dinner.",TRUE,Thu Nov 07 2019 23:16:37 GMT+0100 (Mitteleuropäische Zeit),1573164997198,6.124583333333334,main_trials,3,main,3
267,,5960,22,,none,false,Graduated High School,1573165364673,6,male,German,FALSE,TRUE,There is always a lot of snow during summer in Sydney.,FALSE,Thu Nov 07 2019 23:16:37 GMT+0100 (Mitteleuropäische Zeit),1573164997198,6.124583333333334,main_trials,4,filler,none
267,,9433,22,,none,true,Graduated High School,1573165364673,6,male,German,FALSE,TRUE,There were two world wars in the 20th Century.,TRUE,Thu Nov 07 2019 23:16:37 GMT+0100 (Mitteleuropäische Zeit),1573164997198,6.124583333333334,main_trials,5,filler,none
267,,5608,22,,none,false,Graduated High School,1573165364673,6,male,German,FALSE,TRUE,The Queen of England is a 20 year old man.,FALSE,Thu Nov 07 2019 23:16:37 GMT+0100 (Mitteleuropäische Zeit),1573164997198,6.124583333333334,main_trials,6,filler,none
267,,7972,22,,1,false,Graduated High School,1573165364673,6,male,German,FALSE,TRUE,"Canada has an emperor, and he is fond of sushi.",FALSE,Thu Nov 07 2019 23:16:37 GMT+0100 (Mitteleuropäische Zeit),1573164997198,6.124583333333334,main_trials,7,main,2
267,,5953,22,,none,true,Graduated High School,1573165364673,6,male,German,FALSE,TRUE,The capital city of Japan is Tokyo.,TRUE,Thu Nov 07 2019 23:16:37 GMT+0100 (Mitteleuropäische Zeit),1573164997198,6.124583333333334,main_trials,8,filler,none
267,,13915,22,,10,false,Graduated High School,1573165364673,6,male,German,FALSE,TRUE,"Emmanuel Macron, he did not call the King of France last night.",TRUE,Thu Nov 07 2019 23:16:37 GMT+0100 (Mitteleuropäische Zeit),1573164997198,6.124583333333334,main_trials,9,main,1
267,,10309,22,,none,true,Graduated High School,1573165364673,6,male,German,FALSE,TRUE,The capital city of Russia is Moscow.,TRUE,Thu Nov 07 2019 23:16:37 GMT+0100 (Mitteleuropäische Zeit),1573164997198,6.124583333333334,main_trials,10,filler,none
267,,6197,22,,none,true,Graduated High School,1573165364673,6,male,German,FALSE,TRUE,The Pope is currently not married.,TRUE,Thu Nov 07 2019 23:16:37 GMT+0100 (Mitteleuropäische Zeit),1573164997198,6.124583333333334,main_trials,11,special,3
267,,12635,22,,none,true,Graduated High School,1573165364673,6,male,German,FALSE,TRUE,The Pacific Ocean is a large ocean between Japan and the USA.,FALSE,Thu Nov 07 2019 23:16:37 GMT+0100 (Mitteleuropäische Zeit),1573164997198,6.124583333333334,main_trials,12,filler,none
267,,19796,22,,6,false,Graduated High School,1573165364673,6,male,German,FALSE,TRUE,The Belgian rainforest doesn’t provide a habitat for many species.,FALSE,Thu Nov 07 2019 23:16:37 GMT+0100 (Mitteleuropäische Zeit),1573164997198,6.124583333333334,main_trials,13,main,4
267,,8132,22,,none,false,Graduated High School,1573165364673,6,male,German,FALSE,TRUE,Big Ben is a very large building in the middle of Paris.,FALSE,Thu Nov 07 2019 23:16:37 GMT+0100 (Mitteleuropäische Zeit),1573164997198,6.124583333333334,main_trials,14,filler,none
267,,9492,22,,none,false,Graduated High School,1573165364673,6,male,German,FALSE,TRUE,China is the smallest country in South America.,FALSE,Thu Nov 07 2019 23:16:37 GMT+0100 (Mitteleuropäische Zeit),1573164997198,6.124583333333334,main_trials,15,filler,none
267,,6105,22,,none,true,Graduated High School,1573165364673,6,male,German,FALSE,TRUE,Canada is a democracy.,TRUE,Thu Nov 07 2019 23:16:37 GMT+0100 (Mitteleuropäische Zeit),1573164997198,6.124583333333334,main_trials,16,special,2
267,,10469,22,,none,true,Graduated High School,1573165364673,6,male,German,FALSE,TRUE,Planet Earth is part of the galaxy ‘Milky Way’.,TRUE,Thu Nov 07 2019 23:16:37 GMT+0100 (Mitteleuropäische Zeit),1573164997198,6.124583333333334,main_trials,17,filler,none
267,,6050,22,,none,false,Graduated High School,1573165364673,6,male,German,FALSE,TRUE,France has a king.,FALSE,Thu Nov 07 2019 23:16:37 GMT+0100 (Mitteleuropäische Zeit),1573164997198,6.124583333333334,main_trials,18,special,1
267,,4020,22,,0,false,Graduated High School,1573165364673,6,male,German,FALSE,TRUE,The volcanoes of Germany dominate the landscape.,FALSE,Thu Nov 07 2019 23:16:37 GMT+0100 (Mitteleuropäische Zeit),1573164997198,6.124583333333334,main_trials,19,main,5
267,,9768,22,,none,true,Graduated High School,1573165364673,6,male,German,FALSE,TRUE,The Statue of Liberty is a colossal sculpture on Liberty Island in New York City in the United States.,TRUE,Thu Nov 07 2019 23:16:37 GMT+0100 (Mitteleuropäische Zeit),1573164997198,6.124583333333334,main_trials,20,filler,none
267,,5021,22,,none,true,Graduated High School,1573165364673,6,male,German,FALSE,TRUE,There are more than 2 countries in the United Nations.,TRUE,Thu Nov 07 2019 23:16:37 GMT+0100 (Mitteleuropäische Zeit),1573164997198,6.124583333333334,main_trials,21,filler,none
267,,7864,22,,none,false,Graduated High School,1573165364673,6,male,German,FALSE,TRUE,Belgium has rainforests.,FALSE,Thu Nov 07 2019 23:16:37 GMT+0100 (Mitteleuropäische Zeit),1573164997198,6.124583333333334,main_trials,22,special,4
267,,10581,22,,none,true,Graduated High School,1573165364673,6,male,German,FALSE,TRUE,The town of Pisa in Italy is famous for its Leaning Tower of Pisa.,TRUE,Thu Nov 07 2019 23:16:37 GMT+0100 (Mitteleuropäische Zeit),1573164997198,6.124583333333334,main_trials,23,filler,none
267,,2252,22,,none,false,Graduated High School,1573165364673,6,male,German,FALSE,TRUE,Germany has volcanoes.,TRUE,Thu Nov 07 2019 23:16:37 GMT+0100 (Mitteleuropäische Zeit),1573164997198,6.124583333333334,main_trials,24,special,5
266,,6377,19,,none,true,Graduated High School,1573165288978,6,male,german,FALSE,TRUE,"William Shakespeare was an English poet, playwright and actor, regarded as the greatest writer in the English language.",TRUE,Thu Nov 07 2019 23:17:38 GMT+0100 (Mitteleuropäische Normalzeit),1573165058581,3.83995,practice_trials,1,practice,undefined
266,,32838,19,,none,true,Graduated High School,1573165288978,6,male,german,FALSE,TRUE,Normally there are 32 teeth in the adult human body.,TRUE,Thu Nov 07 2019 23:17:38 GMT+0100 (Mitteleuropäische Normalzeit),1573165058581,3.83995,practice_trials,2,practice,undefined
266,,2825,19,,none,false,Graduated High School,1573165288978,6,male,german,FALSE,TRUE,Spain is a country in Asia.,FALSE,Thu Nov 07 2019 23:17:38 GMT+0100 (Mitteleuropäische Normalzeit),1573165058581,3.83995,practice_trials,3,practice,undefined
266,,4197,19,,none,true,Graduated High School,1573165288978,6,male,german,FALSE,TRUE,Alexander Bell invented the telephone.,TRUE,Thu Nov 07 2019 23:17:38 GMT+0100 (Mitteleuropäische Normalzeit),1573165058581,3.83995,practice_trials,4,practice,undefined
266,,6233,19,,none,false,Graduated High School,1573165288978,6,male,german,FALSE,TRUE,World War II was a global war that lasted from 1914 to 1918.,FALSE,Thu Nov 07 2019 23:17:38 GMT+0100 (Mitteleuropäische Normalzeit),1573165058581,3.83995,practice_trials,5,practice,undefined
266,,4151,19,,none,true,Graduated High School,1573165288978,6,male,german,FALSE,TRUE,The capital city of Japan is Tokyo.,TRUE,Thu Nov 07 2019 23:17:38 GMT+0100 (Mitteleuropäische Normalzeit),1573165058581,3.83995,main_trials,1,filler,none
266,,4547,19,,none,true,Graduated High School,1573165288978,6,male,german,FALSE,TRUE,The Pacific Ocean is a large ocean between Japan and the USA.,TRUE,Thu Nov 07 2019 23:17:38 GMT+0100 (Mitteleuropäische Normalzeit),1573165058581,3.83995,main_trials,2,filler,none
266,,4931,19,,9,false,Graduated High School,1573165288978,6,male,german,FALSE,TRUE,"The volcanoes of Germany, they do not threaten Leipzig.",FALSE,Thu Nov 07 2019 23:17:38 GMT+0100 (Mitteleuropäische Normalzeit),1573165058581,3.83995,main_trials,3,main,5
266,,3198,19,,none,false,Graduated High School,1573165288978,6,male,german,FALSE,TRUE,In the Sahara you can do a variety of winter sports.,FALSE,Thu Nov 07 2019 23:17:38 GMT+0100 (Mitteleuropäische Normalzeit),1573165058581,3.83995,main_trials,4,filler,none
266,,5813,19,,none,true,Graduated High School,1573165288978,6,male,german,FALSE,TRUE,Alzheimer’s Disease is a brain disorder that affects memory.,TRUE,Thu Nov 07 2019 23:17:38 GMT+0100 (Mitteleuropäische Normalzeit),1573165058581,3.83995,main_trials,5,filler,none
266,,3100,19,,none,false,Graduated High School,1573165288978,6,male,german,FALSE,TRUE,The Queen of England is a 20 year old man.,FALSE,Thu Nov 07 2019 23:17:38 GMT+0100 (Mitteleuropäische Normalzeit),1573165058581,3.83995,main_trials,6,filler,none
266,,3579,19,,1,false,Graduated High School,1573165288978,6,male,german,FALSE,TRUE,"The Pope has a wife, and she is a lawyer.",FALSE,Thu Nov 07 2019 23:17:38 GMT+0100 (Mitteleuropäische Normalzeit),1573165058581,3.83995,main_trials,7,main,3
266,,3261,19,,none,true,Graduated High School,1573165288978,6,male,german,FALSE,TRUE,The capital city of Russia is Moscow.,TRUE,Thu Nov 07 2019 23:17:38 GMT+0100 (Mitteleuropäische Normalzeit),1573165058581,3.83995,main_trials,8,filler,none
266,,12337,19,,10,false,Graduated High School,1573165288978,6,male,german,FALSE,TRUE,"Donald Trump, his favorite nature spot is not the Belgian rainforest.",TRUE,Thu Nov 07 2019 23:17:38 GMT+0100 (Mitteleuropäische Normalzeit),1573165058581,3.83995,main_trials,9,main,4
266,,3259,19,,none,true,Graduated High School,1573165288978,6,male,german,FALSE,TRUE,Charles Darwin was a biologist known for his theory of evolution.,TRUE,Thu Nov 07 2019 23:17:38 GMT+0100 (Mitteleuropäische Normalzeit),1573165058581,3.83995,main_trials,10,filler,none
266,,2099,19,,none,false,Graduated High School,1573165288978,6,male,german,FALSE,TRUE,Germany has volcanoes.,FALSE,Thu Nov 07 2019 23:17:38 GMT+0100 (Mitteleuropäische Normalzeit),1573165058581,3.83995,main_trials,11,special,5
266,,4749,19,,none,true,Graduated High School,1573165288978,6,male,german,FALSE,TRUE,The heart is an organ in your body that pumps blood to other organs.,TRUE,Thu Nov 07 2019 23:17:38 GMT+0100 (Mitteleuropäische Normalzeit),1573165058581,3.83995,main_trials,12,filler,none
266,,16356,19,,6,false,Graduated High School,1573165288978,6,male,german,FALSE,TRUE,The Emperor of Canada isn’t fond of sushi.,TRUE,Thu Nov 07 2019 23:17:38 GMT+0100 (Mitteleuropäische Normalzeit),1573165058581,3.83995,main_trials,13,main,2
266,,3801,19,,none,true,Graduated High School,1573165288978,6,male,german,FALSE,TRUE,Monkeys like to eat bananas.,TRUE,Thu Nov 07 2019 23:17:38 GMT+0100 (Mitteleuropäische Normalzeit),1573165058581,3.83995,main_trials,14,filler,none
266,,2742,19,,none,true,Graduated High School,1573165288978,6,male,german,FALSE,TRUE,Currywurst is a popular fast food in Germany.,TRUE,Thu Nov 07 2019 23:17:38 GMT+0100 (Mitteleuropäische Normalzeit),1573165058581,3.83995,main_trials,15,filler,none
266,,2250,19,,none,true,Graduated High School,1573165288978,6,male,german,FALSE,TRUE,The Pope is currently not married.,TRUE,Thu Nov 07 2019 23:17:38 GMT+0100 (Mitteleuropäische Normalzeit),1573165058581,3.83995,main_trials,16,special,3
266,,4467,19,,none,true,Graduated High School,1573165288978,6,male,german,FALSE,TRUE,An earthquake is the result of the sudden movement of the earth’s tectonic plates.,TRUE,Thu Nov 07 2019 23:17:38 GMT+0100 (Mitteleuropäische Normalzeit),1573165058581,3.83995,main_trials,17,filler,none
266,,2348,19,,none,false,Graduated High School,1573165288978,6,male,german,FALSE,TRUE,Belgium has rainforests.,FALSE,Thu Nov 07 2019 23:17:38 GMT+0100 (Mitteleuropäische Normalzeit),1573165058581,3.83995,main_trials,18,special,4
266,,6777,19,,0,false,Graduated High School,1573165288978,6,male,german,FALSE,TRUE,The king of France is bald.,FALSE,Thu Nov 07 2019 23:17:38 GMT+0100 (Mitteleuropäische Normalzeit),1573165058581,3.83995,main_trials,19,main,1
266,,5962,19,,none,true,Graduated High School,1573165288978,6,male,german,FALSE,TRUE,There were two world wars in the 20th Century.,TRUE,Thu Nov 07 2019 23:17:38 GMT+0100 (Mitteleuropäische Normalzeit),1573165058581,3.83995,main_trials,20,filler,none
266,,5917,19,,none,true,Graduated High School,1573165288978,6,male,german,FALSE,TRUE,"Brazil, Canada and Russia are all bigger countries than Switzerland.",TRUE,Thu Nov 07 2019 23:17:38 GMT+0100 (Mitteleuropäische Normalzeit),1573165058581,3.83995,main_trials,21,filler,none
266,,2496,19,,none,true,Graduated High School,1573165288978,6,male,german,FALSE,TRUE,Canada is a democracy.,TRUE,Thu Nov 07 2019 23:17:38 GMT+0100 (Mitteleuropäische Normalzeit),1573165058581,3.83995,main_trials,22,special,2
266,,3248,19,,none,true,Graduated High School,1573165288978,6,male,german,FALSE,TRUE,Water is of major importance to all living organisms.,TRUE,Thu Nov 07 2019 23:17:38 GMT+0100 (Mitteleuropäische Normalzeit),1573165058581,3.83995,main_trials,23,filler,none
266,,2016,19,,none,false,Graduated High School,1573165288978,6,male,german,FALSE,TRUE,France has a king.,FALSE,Thu Nov 07 2019 23:17:38 GMT+0100 (Mitteleuropäische Normalzeit),1573165058581,3.83995,main_trials,24,special,1
265,,4326,19,,none,true,Graduated High School,1573164511480,6,female,German,FALSE,TRUE,Alexander Bell invented the telephone.,TRUE,Thu Nov 07 2019 23:02:44 GMT+0100 (Mitteleuropäische Normalzeit),1573164164215,5.78775,practice_trials,1,practice,undefined
265,,4548,19,,none,false,Graduated High School,1573164511480,6,female,German,FALSE,TRUE,Spain is a country in Asia.,FALSE,Thu Nov 07 2019 23:02:44 GMT+0100 (Mitteleuropäische Normalzeit),1573164164215,5.78775,practice_trials,2,practice,undefined
265,,3588,19,,none,true,Graduated High School,1573164511480,6,female,German,FALSE,TRUE,Normally there are 32 teeth in the adult human body.,TRUE,Thu Nov 07 2019 23:02:44 GMT+0100 (Mitteleuropäische Normalzeit),1573164164215,5.78775,practice_trials,3,practice,undefined
265,,4890,19,,none,false,Graduated High School,1573164511480,6,female,German,FALSE,TRUE,World War II was a global war that lasted from 1914 to 1918.,FALSE,Thu Nov 07 2019 23:02:44 GMT+0100 (Mitteleuropäische Normalzeit),1573164164215,5.78775,practice_trials,4,practice,undefined
265,,6263,19,,none,true,Graduated High School,1573164511480,6,female,German,FALSE,TRUE,"William Shakespeare was an English poet, playwright and actor, regarded as the greatest writer in the English language.",TRUE,Thu Nov 07 2019 23:02:44 GMT+0100 (Mitteleuropäische Normalzeit),1573164164215,5.78775,practice_trials,5,practice,undefined
265,,6036,19,,none,false,Graduated High School,1573164511480,6,female,German,FALSE,TRUE,The desert of Sweden is the hottest desert in the world.,FALSE,Thu Nov 07 2019 23:02:44 GMT+0100 (Mitteleuropäische Normalzeit),1573164164215,5.78775,main_trials,1,filler,none
265,,4808,19,,none,true,Graduated High School,1573164511480,6,female,German,FALSE,TRUE,Steve Jobs was an American inventor and co-founder of Apple.,TRUE,Thu Nov 07 2019 23:02:44 GMT+0100 (Mitteleuropäische Normalzeit),1573164164215,5.78775,main_trials,2,filler,none
265,,10513,19,,10,false,Graduated High School,1573164511480,6,female,German,FALSE,TRUE,"Donald Trump, his favorite nature spot is not the Belgian rainforest.",TRUE,Thu Nov 07 2019 23:02:44 GMT+0100 (Mitteleuropäische Normalzeit),1573164164215,5.78775,main_trials,3,main,4
265,,11244,19,,none,false,Graduated High School,1573164511480,6,female,German,FALSE,TRUE,Taj Mahal is a mausoleum on the bank of the river in the city of Rome.,FALSE,Thu Nov 07 2019 23:02:44 GMT+0100 (Mitteleuropäische Normalzeit),1573164164215,5.78775,main_trials,4,filler,none
265,,6356,19,,none,true,Graduated High School,1573164511480,6,female,German,FALSE,TRUE,Water boils at 100 degree C.,TRUE,Thu Nov 07 2019 23:02:44 GMT+0100 (Mitteleuropäische Normalzeit),1573164164215,5.78775,main_trials,5,filler,none
265,,8113,19,,none,true,Graduated High School,1573164511480,6,female,German,FALSE,TRUE,"Birds are a group of vertebrates, characterized by feathers and wings.",TRUE,Thu Nov 07 2019 23:02:44 GMT+0100 (Mitteleuropäische Normalzeit),1573164164215,5.78775,main_trials,6,filler,none
265,,5106,19,,1,false,Graduated High School,1573164511480,6,female,German,FALSE,TRUE,"Canada has an emperor, and he is fond of sushi.",FALSE,Thu Nov 07 2019 23:02:44 GMT+0100 (Mitteleuropäische Normalzeit),1573164164215,5.78775,main_trials,7,main,2
265,,4492,19,,none,false,Graduated High School,1573164511480,6,female,German,FALSE,TRUE,The country with the lowest population density is China.,FALSE,Thu Nov 07 2019 23:02:44 GMT+0100 (Mitteleuropäische Normalzeit),1573164164215,5.78775,main_trials,8,filler,none
265,,6428,19,,9,false,Graduated High School,1573164511480,6,female,German,FALSE,TRUE,"The volcanoes of Germany, they do not threaten Leipzig.",FALSE,Thu Nov 07 2019 23:02:44 GMT+0100 (Mitteleuropäische Normalzeit),1573164164215,5.78775,main_trials,9,main,5
265,,10850,19,,none,true,Graduated High School,1573164511480,6,female,German,FALSE,TRUE,Earth has a powerful magnetic field.,TRUE,Thu Nov 07 2019 23:02:44 GMT+0100 (Mitteleuropäische Normalzeit),1573164164215,5.78775,main_trials,10,filler,none
265,,2413,19,,none,false,Graduated High School,1573164511480,6,female,German,FALSE,TRUE,Belgium has rainforests.,FALSE,Thu Nov 07 2019 23:02:44 GMT+0100 (Mitteleuropäische Normalzeit),1573164164215,5.78775,main_trials,11,special,4
265,,11324,19,,none,true,Graduated High School,1573164511480,6,female,German,FALSE,TRUE,The Great Pyramid of Giza is one of the Seven Wonders of the Ancient World and the only one of these ancient world wonders which still exists.,FALSE,Thu Nov 07 2019 23:02:44 GMT+0100 (Mitteleuropäische Normalzeit),1573164164215,5.78775,main_trials,12,filler,none
265,,3022,19,,0,false,Graduated High School,1573164511480,6,female,German,FALSE,TRUE,The Pope’s wife is a lawyer.,FALSE,Thu Nov 07 2019 23:02:44 GMT+0100 (Mitteleuropäische Normalzeit),1573164164215,5.78775,main_trials,13,main,3
265,,7914,19,,none,true,Graduated High School,1573164511480,6,female,German,FALSE,TRUE,"Agatha Christie was an English writer, known for her detective novels, particularly those revolving around her fictional detectives Hercule Poirot and Miss Marple.",TRUE,Thu Nov 07 2019 23:02:44 GMT+0100 (Mitteleuropäische Normalzeit),1573164164215,5.78775,main_trials,14,filler,none
265,,3308,19,,none,true,Graduated High School,1573164511480,6,female,German,FALSE,TRUE,The Sun is in the centre of the Solar System.,TRUE,Thu Nov 07 2019 23:02:44 GMT+0100 (Mitteleuropäische Normalzeit),1573164164215,5.78775,main_trials,15,filler,none
265,,2189,19,,none,true,Graduated High School,1573164511480,6,female,German,FALSE,TRUE,Canada is a democracy.,TRUE,Thu Nov 07 2019 23:02:44 GMT+0100 (Mitteleuropäische Normalzeit),1573164164215,5.78775,main_trials,16,special,2
265,,5270,19,,none,true,Graduated High School,1573164511480,6,female,German,FALSE,TRUE,The Brandenburg Gate is a monument in Berlin.,TRUE,Thu Nov 07 2019 23:02:44 GMT+0100 (Mitteleuropäische Normalzeit),1573164164215,5.78775,main_trials,17,filler,none
265,,2939,19,,none,false,Graduated High School,1573164511480,6,female,German,FALSE,TRUE,Germany has volcanoes.,FALSE,Thu Nov 07 2019 23:02:44 GMT+0100 (Mitteleuropäische Normalzeit),1573164164215,5.78775,main_trials,18,special,5
265,,16772,19,,6,false,Graduated High School,1573164511480,6,female,German,FALSE,TRUE,The King of France isn’t bald.,TRUE,Thu Nov 07 2019 23:02:44 GMT+0100 (Mitteleuropäische Normalzeit),1573164164215,5.78775,main_trials,19,main,1
265,,6994,19,,none,true,Graduated High School,1573164511480,6,female,German,FALSE,TRUE,The Grand Canyon in Arizona (USA) is the largest canyon in the world.,TRUE,Thu Nov 07 2019 23:02:44 GMT+0100 (Mitteleuropäische Normalzeit),1573164164215,5.78775,main_trials,20,filler,none
265,,4999,19,,none,false,Graduated High School,1573164511480,6,female,German,FALSE,TRUE,Switzerland is a member of the European Union.,FALSE,Thu Nov 07 2019 23:02:44 GMT+0100 (Mitteleuropäische Normalzeit),1573164164215,5.78775,main_trials,21,filler,none
265,,3140,19,,none,true,Graduated High School,1573164511480,6,female,German,FALSE,TRUE,The Pope is currently not married.,TRUE,Thu Nov 07 2019 23:02:44 GMT+0100 (Mitteleuropäische Normalzeit),1573164164215,5.78775,main_trials,22,special,3
265,,10202,19,,none,false,Graduated High School,1573164511480,6,female,German,FALSE,TRUE,Elvis Presley is one of the most popular musicians in this decade.,TRUE,Thu Nov 07 2019 23:02:44 GMT+0100 (Mitteleuropäische Normalzeit),1573164164215,5.78775,main_trials,23,filler,none
265,,2272,19,,none,false,Graduated High School,1573164511480,6,female,German,FALSE,TRUE,France has a king.,FALSE,Thu Nov 07 2019 23:02:44 GMT+0100 (Mitteleuropäische Normalzeit),1573164164215,5.78775,main_trials,24,special,1
264,,7879,20,,none,true,Graduated High School,1573163865766,6,,German,FALSE,TRUE,"William Shakespeare was an English poet, playwright and actor, regarded as the greatest writer in the English language.",TRUE,Thu Nov 07 2019 22:54:36 GMT+0100 (Mitteleuropäische Normalzeit),1573163676656,3.1518333333333333,practice_trials,1,practice,undefined
264,,3107,20,,none,true,Graduated High School,1573163865766,6,,German,FALSE,TRUE,Normally there are 32 teeth in the adult human body.,TRUE,Thu Nov 07 2019 22:54:36 GMT+0100 (Mitteleuropäische Normalzeit),1573163676656,3.1518333333333333,practice_trials,2,practice,undefined
