submission_id,RT,age,comments,item_version,correct_answer,education,gender,languages,question,response,timeSpent,trial_name,trial_number,trial_type,vignette
192,8110,57,,none,false,Graduated College,female,English,World War II was a global war that lasted from 1914 to 1918.,FALSE,39.48995,practice_trials,1,practice,undefined
192,35557,57,,none,true,Graduated College,female,English,Alexander Bell invented the telephone.,TRUE,39.48995,practice_trials,2,practice,undefined
192,3647,57,,none,false,Graduated College,female,English,Spain is a country in Asia.,FALSE,39.48995,practice_trials,3,practice,undefined
192,16037,57,,none,true,Graduated College,female,English,"William Shakespeare was an English poet, playwright and actor, regarded as the greatest writer in the English language.",TRUE,39.48995,practice_trials,4,practice,undefined
192,11816,57,,none,true,Graduated College,female,English,Normally there are 32 teeth in the adult human body.,TRUE,39.48995,practice_trials,5,practice,undefined
192,6024,57,,none,true,Graduated College,female,English,The Solar System includes the planet Earth.,TRUE,39.48995,main_trials,1,filler,none
192,4986,57,,none,false,Graduated College,female,English,Vatican City is the world's largest country by land area.,FALSE,39.48995,main_trials,2,filler,none
192,13019,57,,9,false,Graduated College,female,English,"The Pope’s wife, she did not invite Angela Merkel for dinner.",FALSE,39.48995,main_trials,3,main,3
192,5389,57,,none,false,Graduated College,female,English,Big Ben is a very large building in the middle of Paris.,FALSE,39.48995,main_trials,4,filler,none
192,2184,57,,none,true,Graduated College,female,English,Harry Potter is a series of fantasy novels written by J. K. Rowling.,TRUE,39.48995,main_trials,5,filler,none
192,14774,57,,none,false,Graduated College,female,English,Taj Mahal is a mausoleum on the bank of the river in the city of Rome.,FALSE,39.48995,main_trials,6,filler,none
192,13528,57,,0,false,Graduated College,female,English,The volcanoes of Germany dominate the landscape.,TRUE,39.48995,main_trials,7,main,5
192,2292,57,,none,false,Graduated College,female,English,James Bond is a spanish dancer from Madrid.,FALSE,39.48995,main_trials,8,filler,none
192,1783,57,,6,false,Graduated College,female,English,The King of France isn’t bald.,FALSE,39.48995,main_trials,9,main,1
192,12025,57,,none,true,Graduated College,female,English,The Pacific Ocean is a large ocean between Japan and the USA.,TRUE,39.48995,main_trials,10,filler,none
192,39609,57,,none,true,Graduated College,female,English,The Pope is currently not married.,TRUE,39.48995,main_trials,11,special,3
192,3605,57,,none,false,Graduated College,female,English,Australia has a very large border with Brazil.,FALSE,39.48995,main_trials,12,filler,none
192,2050,57,,1,false,Graduated College,female,English,"Canada has an emperor, and he is fond of sushi.",FALSE,39.48995,main_trials,13,main,2
192,1849,57,,none,true,Graduated College,female,English,Steve Jobs was an American inventor and co-founder of Apple.,TRUE,39.48995,main_trials,14,filler,none
192,14453,57,,none,true,Graduated College,female,English,Planet Earth is part of the galaxy ‘Milky Way’.,TRUE,39.48995,main_trials,15,filler,none
192,1671,57,,none,false,Graduated College,female,English,Germany has volcanoes.,TRUE,39.48995,main_trials,16,special,5
192,4133,57,,none,true,Graduated College,female,English,"Germany shares borders with France, Belgium and Denmark.",TRUE,39.48995,main_trials,17,filler,none
192,4669,57,,none,false,Graduated College,female,English,France has a king.,FALSE,39.48995,main_trials,18,special,1
192,6869,57,,10,false,Graduated College,female,English,"Donald Trump, his favorite nature spot is not the Belgian rainforest.",TRUE,39.48995,main_trials,19,main,4
192,3817,57,,none,true,Graduated College,female,English,Antarctica is a continent covered almost completely by ice.,TRUE,39.48995,main_trials,20,filler,none
192,2081293,57,,none,true,Graduated College,female,English,The Statue of Liberty is a colossal sculpture on Liberty Island in New York City in the United States.,TRUE,39.48995,main_trials,21,filler,none
192,1285,57,,none,true,Graduated College,female,English,Canada is a democracy.,TRUE,39.48995,main_trials,22,special,2
192,785,57,,none,true,Graduated College,female,English,"English is the main language in Australia, Britain and New Zealand.",TRUE,39.48995,main_trials,23,filler,none
192,544,57,,none,false,Graduated College,female,English,Belgium has rainforests.,TRUE,39.48995,main_trials,24,special,4
191,1676,19,,none,false,Graduated High School,male,English,Spain is a country in Asia.,TRUE,2.1661,practice_trials,1,practice,undefined
191,2987,19,,none,true,Graduated High School,male,English,Normally there are 32 teeth in the adult human body.,TRUE,2.1661,practice_trials,2,practice,undefined
191,1361,19,,none,true,Graduated High School,male,English,Alexander Bell invented the telephone.,TRUE,2.1661,practice_trials,3,practice,undefined
191,2656,19,,none,false,Graduated High School,male,English,World War II was a global war that lasted from 1914 to 1918.,FALSE,2.1661,practice_trials,4,practice,undefined
191,2888,19,,none,true,Graduated High School,male,English,"William Shakespeare was an English poet, playwright and actor, regarded as the greatest writer in the English language.",TRUE,2.1661,practice_trials,5,practice,undefined
191,2693,19,,none,true,Graduated High School,male,English,Earth has a powerful magnetic field.,TRUE,2.1661,main_trials,1,filler,none
191,3129,19,,none,true,Graduated High School,male,English,One of the longest rivers in Europe is the Rhine.,TRUE,2.1661,main_trials,2,filler,none
191,2337,19,,0,false,Graduated High School,male,English,The Belgian rainforest provides a habitat for many species.,FALSE,2.1661,main_trials,3,main,4
191,3886,19,,none,true,Graduated High School,male,English,The town of Pisa in Italy is famous for its Leaning Tower of Pisa.,TRUE,2.1661,main_trials,4,filler,none
191,3095,19,,none,true,Graduated High School,male,English,Hibernation is a deep sleep that helps animals to save energy and survive the winter without eating much.,TRUE,2.1661,main_trials,5,filler,none
191,5897,19,,none,true,Graduated High School,male,English,Test of English as a Foreign Language (TOEFL) is a standardized test to measure the English language ability of non-native speakers.,FALSE,2.1661,main_trials,6,filler,none
191,5483,19,,10,false,Graduated High School,male,English,"Leipzig, it is not threatened by the volcanoes of Germany.",TRUE,2.1661,main_trials,7,main,5
191,2388,19,,none,true,Graduated High School,male,English,Three is a prime number.,TRUE,2.1661,main_trials,8,filler,none
191,2316,19,,1,false,Graduated High School,male,English,"Canada has an emperor, and he is fond of sushi.",FALSE,2.1661,main_trials,9,main,2
191,3933,19,,none,true,Graduated High School,male,English,FIFA World Cup tournament is an international football competition.,TRUE,2.1661,main_trials,10,filler,none
191,2114,19,,none,false,Graduated High School,male,English,Belgium has rainforests.,FALSE,2.1661,main_trials,11,special,4
191,3973,19,,none,false,Graduated High School,male,English,Planet Earth is the sixth planet from the Sun.,TRUE,2.1661,main_trials,12,filler,none
191,4756,19,,9,false,Graduated High School,male,English,"The Pope’s wife, she did not invite Angela Merkel for dinner.",TRUE,2.1661,main_trials,13,main,3
191,2144,19,,none,false,Graduated High School,male,English,James Bond is a spanish dancer from Madrid.,FALSE,2.1661,main_trials,14,filler,none
191,5358,19,,none,true,Graduated High School,male,English,"National Geographic is a channel broadcasting documentaries about science, nature, and history.",TRUE,2.1661,main_trials,15,filler,none
191,1851,19,,none,false,Graduated High School,male,English,Germany has volcanoes.,FALSE,2.1661,main_trials,16,special,5
191,3307,19,,none,true,Graduated High School,male,English,Russia is one of the biggest countries in the world.,TRUE,2.1661,main_trials,17,filler,none
191,3331,19,,none,true,Graduated High School,male,English,Canada is a democracy.,TRUE,2.1661,main_trials,18,special,2
191,3773,19,,6,false,Graduated High School,male,English,The King of France isn’t bald.,FALSE,2.1661,main_trials,19,main,1
191,7432,19,,none,true,Graduated High School,male,English,Square root of 16 is 4.,TRUE,2.1661,main_trials,20,filler,none
191,7944,19,,none,true,Graduated High School,male,English,"Michael Jackson was one of the most popular singers, songwriters, and dancers, known also as the ‘King of Pop’.",TRUE,2.1661,main_trials,21,filler,none
191,2937,19,,none,true,Graduated High School,male,English,The Pope is currently not married.,TRUE,2.1661,main_trials,22,special,3
191,2716,19,,none,false,Graduated High School,male,English,The Eiffel Tower is one of the most popular and frequently visited tourist attractions in Italy.,TRUE,2.1661,main_trials,23,filler,none
191,1801,19,,none,false,Graduated High School,male,English,France has a king.,FALSE,2.1661,main_trials,24,special,1
190,3803,31,,none,false,Graduated College,female,English,Spain is a country in Asia.,FALSE,2.88835,practice_trials,1,practice,undefined
190,6300,31,,none,true,Graduated College,female,English,"William Shakespeare was an English poet, playwright and actor, regarded as the greatest writer in the English language.",TRUE,2.88835,practice_trials,2,practice,undefined
190,3955,31,,none,true,Graduated College,female,English,Alexander Bell invented the telephone.,TRUE,2.88835,practice_trials,3,practice,undefined
190,6040,31,,none,false,Graduated College,female,English,World War II was a global war that lasted from 1914 to 1918.,FALSE,2.88835,practice_trials,4,practice,undefined
190,3009,31,,none,true,Graduated College,female,English,Normally there are 32 teeth in the adult human body.,FALSE,2.88835,practice_trials,5,practice,undefined
190,5715,31,,none,false,Graduated College,female,English,Big Ben is a very large building in the middle of Paris.,FALSE,2.88835,main_trials,1,filler,none
190,6848,31,,none,true,Graduated College,female,English,The United Nations Children's Fund (UNICEF) provides humanitarian and developmental assistance to children and mothers in developing countries.,TRUE,2.88835,main_trials,2,filler,none
190,7507,31,,10,false,Graduated College,female,English,"Leipzig, it is not threatened by the volcanoes of Germany.",FALSE,2.88835,main_trials,3,main,5
190,6836,31,,none,true,Graduated College,female,English,Three is a prime number.,FALSE,2.88835,main_trials,4,filler,none
190,3633,31,,none,true,Graduated College,female,English,London is famous for Big Ben and the Queen.,TRUE,2.88835,main_trials,5,filler,none
190,4382,31,,none,true,Graduated College,female,English,Dinosaurs became extinct millions of years ago.,TRUE,2.88835,main_trials,6,filler,none
190,4357,31,,0,false,Graduated College,female,English,The king of France is bald.,FALSE,2.88835,main_trials,7,main,1
190,2729,31,,none,true,Graduated College,female,English,Water boils at 100 degree C.,TRUE,2.88835,main_trials,8,filler,none
190,3331,31,,6,false,Graduated College,female,English,The Emperor of Canada isn’t fond of sushi.,FALSE,2.88835,main_trials,9,main,2
190,8340,31,,none,true,Graduated College,female,English,The Pacific Ocean is a large ocean between Japan and the USA.,TRUE,2.88835,main_trials,10,filler,none
190,2262,31,,none,false,Graduated College,female,English,Germany has volcanoes.,TRUE,2.88835,main_trials,11,special,5
190,5590,31,,none,true,Graduated College,female,English,The Republic of South Africa is located in the continent of Africa.,FALSE,2.88835,main_trials,12,filler,none
190,5064,31,,9,false,Graduated College,female,English,"The Pope’s wife, she did not invite Angela Merkel for dinner.",TRUE,2.88835,main_trials,13,main,3
190,1701,31,,none,true,Graduated College,female,English,Earth has a powerful magnetic field.,TRUE,2.88835,main_trials,14,filler,none
190,2485,31,,none,true,Graduated College,female,English,The Earth was once believed to be the centre of the universe.,TRUE,2.88835,main_trials,15,filler,none
190,1722,31,,none,false,Graduated College,female,English,France has a king.,TRUE,2.88835,main_trials,16,special,1
190,4234,31,,none,true,Graduated College,female,English,The United Nations (UN) is an intergovernmental organization tasked to promote international cooperation and to create and maintain international order.,TRUE,2.88835,main_trials,17,filler,none
190,2968,31,,none,true,Graduated College,female,English,Canada is a democracy.,FALSE,2.88835,main_trials,18,special,2
190,2790,31,,1,false,Graduated College,female,English,"There is a rainforest in Belgium, and it provides a habitat for many species.",TRUE,2.88835,main_trials,19,main,4
190,3843,31,,none,false,Graduated College,female,English,Romeo and Juliet is a tragedy written by Leo Tolstoy.,FALSE,2.88835,main_trials,20,filler,none
190,2343,31,,none,true,Graduated College,female,English,Brazil is the largest country in South America.,TRUE,2.88835,main_trials,21,filler,none
190,2536,31,,none,true,Graduated College,female,English,The Pope is currently not married.,TRUE,2.88835,main_trials,22,special,3
190,4233,31,,none,true,Graduated College,female,English,"The Bermuda Triangle, is a region in the Atlantic Ocean, where a number of aircraft and ships are said to have disappeared under mysterious circumstances.",TRUE,2.88835,main_trials,23,filler,none
190,2000,31,,none,false,Graduated College,female,English,Belgium has rainforests.,TRUE,2.88835,main_trials,24,special,4
189,7271,63,I hope I was right most of the time!,none,false,Graduated College,female,English,World War II was a global war that lasted from 1914 to 1918.,FALSE,5.63046666666667,practice_trials,1,practice,undefined
189,2353,63,I hope I was right most of the time!,none,false,Graduated College,female,English,Spain is a country in Asia.,FALSE,5.63046666666667,practice_trials,2,practice,undefined
189,4845,63,I hope I was right most of the time!,none,true,Graduated College,female,English,"William Shakespeare was an English poet, playwright and actor, regarded as the greatest writer in the English language.",TRUE,5.63046666666667,practice_trials,3,practice,undefined
189,2482,63,I hope I was right most of the time!,none,true,Graduated College,female,English,Alexander Bell invented the telephone.,TRUE,5.63046666666667,practice_trials,4,practice,undefined
189,2802,63,I hope I was right most of the time!,none,true,Graduated College,female,English,Normally there are 32 teeth in the adult human body.,TRUE,5.63046666666667,practice_trials,5,practice,undefined
189,3595,63,I hope I was right most of the time!,none,true,Graduated College,female,English,Charles Darwin was a biologist known for his theory of evolution.,TRUE,5.63046666666667,main_trials,1,filler,none
189,2300,63,I hope I was right most of the time!,none,true,Graduated College,female,English,The capital city of Russia is Moscow.,TRUE,5.63046666666667,main_trials,2,filler,none
189,4298,63,I hope I was right most of the time!,1,false,Graduated College,female,English,"Canada has an emperor, and he is fond of sushi.",FALSE,5.63046666666667,main_trials,3,main,2
189,8036,63,I hope I was right most of the time!,none,true,Graduated College,female,English,The Solar System includes the planet Earth.,TRUE,5.63046666666667,main_trials,4,filler,none
189,2846,63,I hope I was right most of the time!,none,false,Graduated College,female,English,Australia has a very large border with Brazil.,FALSE,5.63046666666667,main_trials,5,filler,none
189,3169,63,I hope I was right most of the time!,none,true,Graduated College,female,English,The Great Wall is one of the seven wonders of the world.,TRUE,5.63046666666667,main_trials,6,filler,none
189,8639,63,I hope I was right most of the time!,9,false,Graduated College,female,English,"The King of France, he did not call Emmanuel Macron last night.",FALSE,5.63046666666667,main_trials,7,main,1
189,5161,63,I hope I was right most of the time!,none,false,Graduated College,female,English,Elvis Presley is one of the most popular musicians in this decade.,FALSE,5.63046666666667,main_trials,8,filler,none
189,3581,63,I hope I was right most of the time!,0,false,Graduated College,female,English,The volcanoes of Germany dominate the landscape.,FALSE,5.63046666666667,main_trials,9,main,5
189,50477,63,I hope I was right most of the time!,none,true,Graduated College,female,English,Currywurst is a popular fast food in Germany.,TRUE,5.63046666666667,main_trials,10,filler,none
189,15751,63,I hope I was right most of the time!,none,true,Graduated College,female,English,Canada is a democracy.,TRUE,5.63046666666667,main_trials,11,special,2
189,3595,63,I hope I was right most of the time!,none,true,Graduated College,female,English,FIFA World Cup tournament is an international football competition.,TRUE,5.63046666666667,main_trials,12,filler,none
189,9473,63,I hope I was right most of the time!,10,false,Graduated College,female,English,"Angela Merkel, she was not invited by the Pope’s wife for dinner.",TRUE,5.63046666666667,main_trials,13,main,3
189,14445,63,I hope I was right most of the time!,none,false,Graduated College,female,English,Switzerland is a member of the European Union.,TRUE,5.63046666666667,main_trials,14,filler,none
189,5715,63,I hope I was right most of the time!,none,true,Graduated College,female,English,The United Nations (UN) is an intergovernmental organization tasked to promote international cooperation and to create and maintain international order.,TRUE,5.63046666666667,main_trials,15,filler,none
189,6655,63,I hope I was right most of the time!,none,false,Graduated College,female,English,France has a king.,FALSE,5.63046666666667,main_trials,16,special,1
189,2820,63,I hope I was right most of the time!,none,true,Graduated College,female,English,Alzheimer’s Disease is a brain disorder that affects memory.,TRUE,5.63046666666667,main_trials,17,filler,none
189,10519,63,I hope I was right most of the time!,none,false,Graduated College,female,English,Germany has volcanoes.,TRUE,5.63046666666667,main_trials,18,special,5
189,6487,63,I hope I was right most of the time!,6,false,Graduated College,female,English,The Belgian rainforest doesn’t provide a habitat for many species.,FALSE,5.63046666666667,main_trials,19,main,4
189,2258,63,I hope I was right most of the time!,none,false,Graduated College,female,English,People love the polar bears in Australia.,FALSE,5.63046666666667,main_trials,20,filler,none
189,4517,63,I hope I was right most of the time!,none,true,Graduated College,female,English,"Germany shares borders with France, Belgium and Denmark.",TRUE,5.63046666666667,main_trials,21,filler,none
189,2937,63,I hope I was right most of the time!,none,true,Graduated College,female,English,The Pope is currently not married.,TRUE,5.63046666666667,main_trials,22,special,3
189,3078,63,I hope I was right most of the time!,none,true,Graduated College,female,English,The Sahara desert in Africa is the largest desert in the world.,TRUE,5.63046666666667,main_trials,23,filler,none
189,21003,63,I hope I was right most of the time!,none,false,Graduated College,female,English,Belgium has rainforests.,FALSE,5.63046666666667,main_trials,24,special,4
188,5854,26,"My level of education is Some Highschool, not finished. So I couldn't input what was correct, so I'm leaving a comment here.",none,true,,male,English,"William Shakespeare was an English poet, playwright and actor, regarded as the greatest writer in the English language.",TRUE,3.83238333333333,practice_trials,1,practice,undefined
188,22409,26,"My level of education is Some Highschool, not finished. So I couldn't input what was correct, so I'm leaving a comment here.",none,true,,male,English,Normally there are 32 teeth in the adult human body.,TRUE,3.83238333333333,practice_trials,2,practice,undefined
188,11298,26,"My level of education is Some Highschool, not finished. So I couldn't input what was correct, so I'm leaving a comment here.",none,false,,male,English,World War II was a global war that lasted from 1914 to 1918.,TRUE,3.83238333333333,practice_trials,3,practice,undefined
188,1964,26,"My level of education is Some Highschool, not finished. So I couldn't input what was correct, so I'm leaving a comment here.",none,false,,male,English,Spain is a country in Asia.,FALSE,3.83238333333333,practice_trials,4,practice,undefined
188,3326,26,"My level of education is Some Highschool, not finished. So I couldn't input what was correct, so I'm leaving a comment here.",none,true,,male,English,Alexander Bell invented the telephone.,TRUE,3.83238333333333,practice_trials,5,practice,undefined
188,9442,26,"My level of education is Some Highschool, not finished. So I couldn't input what was correct, so I'm leaving a comment here.",none,true,,male,English,The town of Pisa in Italy is famous for its Leaning Tower of Pisa.,FALSE,3.83238333333333,main_trials,1,filler,none
188,7881,26,"My level of education is Some Highschool, not finished. So I couldn't input what was correct, so I'm leaving a comment here.",none,true,,male,English,"The statue of Jesus Christ is a famous sightseeing attraction in the city of Rio de Janeiro, Brazil.",TRUE,3.83238333333333,main_trials,2,filler,none
188,3173,26,"My level of education is Some Highschool, not finished. So I couldn't input what was correct, so I'm leaving a comment here.",0,false,,male,English,The king of France is bald.,FALSE,3.83238333333333,main_trials,3,main,1
188,10012,26,"My level of education is Some Highschool, not finished. So I couldn't input what was correct, so I'm leaving a comment here.",none,true,,male,English,Lower Saxony is a German state situated in northwestern Germany.,FALSE,3.83238333333333,main_trials,4,filler,none
188,2701,26,"My level of education is Some Highschool, not finished. So I couldn't input what was correct, so I'm leaving a comment here.",none,true,,male,English,Charles Darwin was a biologist known for his theory of evolution.,TRUE,3.83238333333333,main_trials,5,filler,none
188,8515,26,"My level of education is Some Highschool, not finished. So I couldn't input what was correct, so I'm leaving a comment here.",none,true,,male,English,Trees absorb carbon dioxide and release oxygen.,TRUE,3.83238333333333,main_trials,6,filler,none
188,3718,26,"My level of education is Some Highschool, not finished. So I couldn't input what was correct, so I'm leaving a comment here.",9,false,,male,English,"The Emperor of Canada, he does not reside in Dresden for the summer.",FALSE,3.83238333333333,main_trials,7,main,2
188,1850,26,"My level of education is Some Highschool, not finished. So I couldn't input what was correct, so I'm leaving a comment here.",none,true,,male,English,Venice is a city in Italy.,TRUE,3.83238333333333,main_trials,8,filler,none
188,1915,26,"My level of education is Some Highschool, not finished. So I couldn't input what was correct, so I'm leaving a comment here.",6,false,,male,English,The volcanoes of Germany do not dominate the landscape.,FALSE,3.83238333333333,main_trials,9,main,5
188,7325,26,"My level of education is Some Highschool, not finished. So I couldn't input what was correct, so I'm leaving a comment here.",none,true,,male,English,Brazil is the largest country in South America.,TRUE,3.83238333333333,main_trials,10,filler,none
188,1409,26,"My level of education is Some Highschool, not finished. So I couldn't input what was correct, so I'm leaving a comment here.",none,false,,male,English,France has a king.,FALSE,3.83238333333333,main_trials,11,special,1
188,1900,26,"My level of education is Some Highschool, not finished. So I couldn't input what was correct, so I'm leaving a comment here.",none,false,,male,English,In the Sahara you can do a variety of winter sports.,FALSE,3.83238333333333,main_trials,12,filler,none
188,6109,26,"My level of education is Some Highschool, not finished. So I couldn't input what was correct, so I'm leaving a comment here.",10,false,,male,English,"Donald Trump, his favorite nature spot is not the Belgian rainforest.",TRUE,3.83238333333333,main_trials,13,main,4
188,4952,26,"My level of education is Some Highschool, not finished. So I couldn't input what was correct, so I'm leaving a comment here.",none,true,,male,English,"The Sydney Opera House, built in Australia’s biggest city, is famous for its roof’s architecture.",TRUE,3.83238333333333,main_trials,14,filler,none
188,5480,26,"My level of education is Some Highschool, not finished. So I couldn't input what was correct, so I'm leaving a comment here.",none,true,,male,English,Stephen William Hawking was a famous physicist.,TRUE,3.83238333333333,main_trials,15,filler,none
188,1561,26,"My level of education is Some Highschool, not finished. So I couldn't input what was correct, so I'm leaving a comment here.",none,true,,male,English,Canada is a democracy.,TRUE,3.83238333333333,main_trials,16,special,2
188,2466,26,"My level of education is Some Highschool, not finished. So I couldn't input what was correct, so I'm leaving a comment here.",none,false,,male,English,Romeo and Juliet is a tragedy written by Leo Tolstoy.,FALSE,3.83238333333333,main_trials,17,filler,none
188,3222,26,"My level of education is Some Highschool, not finished. So I couldn't input what was correct, so I'm leaving a comment here.",none,false,,male,English,Germany has volcanoes.,FALSE,3.83238333333333,main_trials,18,special,5
188,2868,26,"My level of education is Some Highschool, not finished. So I couldn't input what was correct, so I'm leaving a comment here.",1,false,,male,English,"The Pope has a wife, and she is a lawyer.",FALSE,3.83238333333333,main_trials,19,main,3
188,3300,26,"My level of education is Some Highschool, not finished. So I couldn't input what was correct, so I'm leaving a comment here.",none,false,,male,English,The country with the lowest population density is China.,FALSE,3.83238333333333,main_trials,20,filler,none
188,2645,26,"My level of education is Some Highschool, not finished. So I couldn't input what was correct, so I'm leaving a comment here.",none,true,,male,English,Russia is one of the biggest countries in the world.,TRUE,3.83238333333333,main_trials,21,filler,none
188,1576,26,"My level of education is Some Highschool, not finished. So I couldn't input what was correct, so I'm leaving a comment here.",none,false,,male,English,Belgium has rainforests.,FALSE,3.83238333333333,main_trials,22,special,4
188,1557,26,"My level of education is Some Highschool, not finished. So I couldn't input what was correct, so I'm leaving a comment here.",none,true,,male,English,Earth has a powerful magnetic field.,TRUE,3.83238333333333,main_trials,23,filler,none
188,2345,26,"My level of education is Some Highschool, not finished. So I couldn't input what was correct, so I'm leaving a comment here.",none,true,,male,English,The Pope is currently not married.,TRUE,3.83238333333333,main_trials,24,special,3
187,9878,34,,none,true,Graduated High School,female,English,"William Shakespeare was an English poet, playwright and actor, regarded as the greatest writer in the English language.",TRUE,3.74595,practice_trials,1,practice,undefined
187,4522,34,,none,false,Graduated High School,female,English,Spain is a country in Asia.,FALSE,3.74595,practice_trials,2,practice,undefined
187,13112,34,,none,true,Graduated High School,female,English,Normally there are 32 teeth in the adult human body.,TRUE,3.74595,practice_trials,3,practice,undefined
187,4455,34,,none,true,Graduated High School,female,English,Alexander Bell invented the telephone.,TRUE,3.74595,practice_trials,4,practice,undefined
187,3687,34,,none,false,Graduated High School,female,English,World War II was a global war that lasted from 1914 to 1918.,FALSE,3.74595,practice_trials,5,practice,undefined
187,4363,34,,none,true,Graduated High School,female,English,An earthquake is the result of the sudden movement of the earth’s tectonic plates.,TRUE,3.74595,main_trials,1,filler,none
187,7009,34,,none,true,Graduated High School,female,English,Paris is a popular city for many tourists.,TRUE,3.74595,main_trials,2,filler,none
187,7095,34,,0,false,Graduated High School,female,English,The king of France is bald.,FALSE,3.74595,main_trials,3,main,1
187,11311,34,,none,true,Graduated High School,female,English,"The Sydney Opera House, built in Australia’s biggest city, is famous for its roof’s architecture.",TRUE,3.74595,main_trials,4,filler,none
187,4827,34,,none,true,Graduated High School,female,English,FIFA World Cup tournament is an international football competition.,TRUE,3.74595,main_trials,5,filler,none
187,5329,34,,none,true,Graduated High School,female,English,"Egypt is famous for the pyramids, the pharaohs and the Nile River.",TRUE,3.74595,main_trials,6,filler,none
187,2165,34,,1,false,Graduated High School,female,English,"The Pope has a wife, and she is a lawyer.",FALSE,3.74595,main_trials,7,main,3
187,12884,34,,none,true,Graduated High School,female,English,"Brazil, Canada and Russia are all bigger countries than Switzerland.",TRUE,3.74595,main_trials,8,filler,none
187,3066,34,,6,false,Graduated High School,female,English,The Emperor of Canada isn’t fond of sushi.,FALSE,3.74595,main_trials,9,main,2
187,4860,34,,none,true,Graduated High School,female,English,The University of Edinburgh is located in Great Britain.,TRUE,3.74595,main_trials,10,filler,none
187,1727,34,,none,false,Graduated High School,female,English,France has a king.,FALSE,3.74595,main_trials,11,special,1
187,1909,34,,none,true,Graduated High School,female,English,Leonardo DiCaprio is a famous actor.,TRUE,3.74595,main_trials,12,filler,none
187,8844,34,,10,false,Graduated High School,female,English,"Donald Trump, his favorite nature spot is not the Belgian rainforest.",TRUE,3.74595,main_trials,13,main,4
187,3054,34,,none,false,Graduated High School,female,English,London is the capital of Asia.,FALSE,3.74595,main_trials,14,filler,none
187,3297,34,,none,true,Graduated High School,female,English,Alzheimer’s Disease is a brain disorder that affects memory.,TRUE,3.74595,main_trials,15,filler,none
187,2357,34,,none,true,Graduated High School,female,English,The Pope is currently not married.,TRUE,3.74595,main_trials,16,special,3
187,2523,34,,none,true,Graduated High School,female,English,Water is of major importance to all living organisms.,TRUE,3.74595,main_trials,17,filler,none
187,4042,34,,none,true,Graduated High School,female,English,Canada is a democracy.,TRUE,3.74595,main_trials,18,special,2
187,4994,34,,9,false,Graduated High School,female,English,"The volcanoes of Germany, they do not threaten Leipzig.",TRUE,3.74595,main_trials,19,main,5
187,2228,34,,none,true,Graduated High School,female,English,London is famous for Big Ben and the Queen.,TRUE,3.74595,main_trials,20,filler,none
187,2072,34,,none,false,Graduated High School,female,English,Facebook is the name of a famous musician.,FALSE,3.74595,main_trials,21,filler,none
187,4731,34,,none,false,Graduated High School,female,English,Belgium has rainforests.,FALSE,3.74595,main_trials,22,special,4
187,2814,34,,none,false,Graduated High School,female,English,The Leaning Tower of Pisa is one of Germany’s major tourist attractions.,FALSE,3.74595,main_trials,23,filler,none
187,11574,34,,none,false,Graduated High School,female,English,Germany has volcanoes.,FALSE,3.74595,main_trials,24,special,5
186,2914,29,,none,true,Graduated High School,male,English,"William Shakespeare was an English poet, playwright and actor, regarded as the greatest writer in the English language.",TRUE,3.12791666666667,practice_trials,1,practice,undefined
186,2284,29,,none,false,Graduated High School,male,English,World War II was a global war that lasted from 1914 to 1918.,TRUE,3.12791666666667,practice_trials,2,practice,undefined
186,1486,29,,none,false,Graduated High School,male,English,Spain is a country in Asia.,TRUE,3.12791666666667,practice_trials,3,practice,undefined
186,3593,29,,none,true,Graduated High School,male,English,Normally there are 32 teeth in the adult human body.,TRUE,3.12791666666667,practice_trials,4,practice,undefined
186,1578,29,,none,true,Graduated High School,male,English,Alexander Bell invented the telephone.,TRUE,3.12791666666667,practice_trials,5,practice,undefined
186,22606,29,,none,true,Graduated High School,male,English,There are more than 2 countries in the United Nations.,FALSE,3.12791666666667,main_trials,1,filler,none
186,3548,29,,none,true,Graduated High School,male,English,In the German language every noun has a gender.,TRUE,3.12791666666667,main_trials,2,filler,none
186,2272,29,,6,false,Graduated High School,male,English,The Emperor of Canada isn’t fond of sushi.,TRUE,3.12791666666667,main_trials,3,main,2
186,1872,29,,none,true,Graduated High School,male,English,The University of Edinburgh is located in Great Britain.,TRUE,3.12791666666667,main_trials,4,filler,none
186,1721,29,,none,true,Graduated High School,male,English,The Great Wall is one of the seven wonders of the world.,TRUE,3.12791666666667,main_trials,5,filler,none
186,75954,29,,none,true,Graduated High School,male,English,Monkeys like to eat bananas.,TRUE,3.12791666666667,main_trials,6,filler,none
186,2175,29,,10,false,Graduated High School,male,English,"Angela Merkel, she was not invited by the Pope’s wife for dinner.",FALSE,3.12791666666667,main_trials,7,main,3
186,1923,29,,none,true,Graduated High School,male,English,An earthquake is the result of the sudden movement of the earth’s tectonic plates.,TRUE,3.12791666666667,main_trials,8,filler,none
186,2173,29,,1,false,Graduated High School,male,English,"France has a king, and he is bald.",FALSE,3.12791666666667,main_trials,9,main,1
186,1870,29,,none,false,Graduated High School,male,English,The Berlin Wall was destroyed 10 years ago by Sweden.,TRUE,3.12791666666667,main_trials,10,filler,none
186,3383,29,,none,true,Graduated High School,male,English,Canada is a democracy.,TRUE,3.12791666666667,main_trials,11,special,2
186,3405,29,,none,false,Graduated High School,male,English,In the Sahara you can do a variety of winter sports.,FALSE,3.12791666666667,main_trials,12,filler,none
186,1810,29,,9,false,Graduated High School,male,English,"The volcanoes of Germany, they do not threaten Leipzig.",FALSE,3.12791666666667,main_trials,13,main,5
186,1739,29,,none,true,Graduated High School,male,English,Paris is a popular city for many tourists.,TRUE,3.12791666666667,main_trials,14,filler,none
186,2477,29,,none,false,Graduated High School,male,English,Romeo and Juliet is a tragedy written by Leo Tolstoy.,TRUE,3.12791666666667,main_trials,15,filler,none
186,1649,29,,none,true,Graduated High School,male,English,The Pope is currently not married.,TRUE,3.12791666666667,main_trials,16,special,3
186,1924,29,,none,true,Graduated High School,male,English,The Statue of Liberty is a colossal sculpture on Liberty Island in New York City in the United States.,TRUE,3.12791666666667,main_trials,17,filler,none
186,2253,29,,none,false,Graduated High School,male,English,France has a king.,FALSE,3.12791666666667,main_trials,18,special,1
186,3050,29,,0,false,Graduated High School,male,English,The Belgian rainforest provides a habitat for many species.,TRUE,3.12791666666667,main_trials,19,main,4
186,2279,29,,none,true,Graduated High School,male,English,"The Sydney Opera House, built in Australia’s biggest city, is famous for its roof’s architecture.",TRUE,3.12791666666667,main_trials,20,filler,none
186,1830,29,,none,false,Graduated High School,male,English,The Queen of England is a 20 year old man.,FALSE,3.12791666666667,main_trials,21,filler,none
186,2186,29,,none,false,Graduated High School,male,English,Germany has volcanoes.,FALSE,3.12791666666667,main_trials,22,special,5
186,2721,29,,none,true,Graduated High School,male,English,One of the longest rivers in Europe is the Rhine.,FALSE,3.12791666666667,main_trials,23,filler,none
186,2330,29,,none,false,Graduated High School,male,English,Belgium has rainforests.,TRUE,3.12791666666667,main_trials,24,special,4
185,4200,26,,none,false,,male,english,World War II was a global war that lasted from 1914 to 1918.,FALSE,2.76205,practice_trials,1,practice,undefined
185,2055,26,,none,true,,male,english,Alexander Bell invented the telephone.,TRUE,2.76205,practice_trials,2,practice,undefined
185,2166,26,,none,false,,male,english,Spain is a country in Asia.,FALSE,2.76205,practice_trials,3,practice,undefined
185,4009,26,,none,true,,male,english,"William Shakespeare was an English poet, playwright and actor, regarded as the greatest writer in the English language.",TRUE,2.76205,practice_trials,4,practice,undefined
185,5127,26,,none,true,,male,english,Normally there are 32 teeth in the adult human body.,TRUE,2.76205,practice_trials,5,practice,undefined
185,8335,26,,none,true,,male,english,The Sun is in the centre of the Solar System.,TRUE,2.76205,main_trials,1,filler,none
185,5960,26,,none,true,,male,english,The brain is made up of very special cells called neurons.,TRUE,2.76205,main_trials,2,filler,none
185,6183,26,,6,false,,male,english,The volcanoes of Germany do not dominate the landscape.,TRUE,2.76205,main_trials,3,main,5
185,5519,26,,none,true,,male,english,"The Sydney Opera House, built in Australia’s biggest city, is famous for its roof’s architecture.",TRUE,2.76205,main_trials,4,filler,none
185,6704,26,,none,true,,male,english,"Agatha Christie was an English writer, known for her detective novels, particularly those revolving around her fictional detectives Hercule Poirot and Miss Marple.",FALSE,2.76205,main_trials,5,filler,none
185,4840,26,,none,true,,male,english,Water boils at 100 degree C.,FALSE,2.76205,main_trials,6,filler,none
185,4376,26,,0,false,,male,english,The Emperor of Canada is fond of sushi.,FALSE,2.76205,main_trials,7,main,2
185,3943,26,,none,false,,male,english,Big Ben is a very large building in the middle of Paris.,FALSE,2.76205,main_trials,8,filler,none
185,11623,26,,10,false,,male,english,"Angela Merkel, she was not invited by the Pope’s wife for dinner.",FALSE,2.76205,main_trials,9,main,3
185,2768,26,,none,false,,male,english,The Queen of England is a 20 year old man.,FALSE,2.76205,main_trials,10,filler,none
185,3327,26,,none,false,,male,english,Germany has volcanoes.,TRUE,2.76205,main_trials,11,special,5
185,1488,26,,none,true,,male,english,The capital city of Russia is Moscow.,TRUE,2.76205,main_trials,12,filler,none
185,6623,26,,1,false,,male,english,"There is a rainforest in Belgium, and it provides a habitat for many species.",TRUE,2.76205,main_trials,13,main,4
185,3974,26,,none,false,,male,english,The desert of Sweden is the hottest desert in the world.,FALSE,2.76205,main_trials,14,filler,none
185,4112,26,,none,true,,male,english,The Earth was once believed to be the centre of the universe.,TRUE,2.76205,main_trials,15,filler,none
185,2015,26,,none,true,,male,english,Canada is a democracy.,TRUE,2.76205,main_trials,16,special,2
185,3311,26,,none,true,,male,english,Canada is a country located in North America.,TRUE,2.76205,main_trials,17,filler,none
185,2392,26,,none,true,,male,english,The Pope is currently not married.,TRUE,2.76205,main_trials,18,special,3
185,4384,26,,9,false,,male,english,"The King of France, he did not call Emmanuel Macron last night.",FALSE,2.76205,main_trials,19,main,1
185,1623,26,,none,false,,male,english,James Bond is a spanish dancer from Madrid.,FALSE,2.76205,main_trials,20,filler,none
185,2144,26,,none,true,,male,english,Earth has a powerful magnetic field.,TRUE,2.76205,main_trials,21,filler,none
185,2328,26,,none,false,,male,english,Belgium has rainforests.,FALSE,2.76205,main_trials,22,special,4
185,3375,26,,none,false,,male,english,Australia has a very large border with Brazil.,FALSE,2.76205,main_trials,23,filler,none
185,4095,26,,none,false,,male,english,France has a king.,FALSE,2.76205,main_trials,24,special,1
184,4337,43,,none,true,Higher Degree,female,English,Normally there are 32 teeth in the adult human body.,TRUE,2.47605,practice_trials,1,practice,undefined
184,1875,43,,none,true,Higher Degree,female,English,Alexander Bell invented the telephone.,TRUE,2.47605,practice_trials,2,practice,undefined
184,2103,43,,none,false,Higher Degree,female,English,Spain is a country in Asia.,FALSE,2.47605,practice_trials,3,practice,undefined
184,2736,43,,none,true,Higher Degree,female,English,"William Shakespeare was an English poet, playwright and actor, regarded as the greatest writer in the English language.",TRUE,2.47605,practice_trials,4,practice,undefined
184,2801,43,,none,false,Higher Degree,female,English,World War II was a global war that lasted from 1914 to 1918.,FALSE,2.47605,practice_trials,5,practice,undefined
184,3708,43,,none,true,Higher Degree,female,English,Water boils at 100 degree C.,TRUE,2.47605,main_trials,1,filler,none
184,4215,43,,none,true,Higher Degree,female,English,FIFA World Cup tournament is an international football competition.,FALSE,2.47605,main_trials,2,filler,none
184,2084,43,,1,false,Higher Degree,female,English,"There are volcanoes in Germany, and they dominate the landscape.",FALSE,2.47605,main_trials,3,main,5
184,2300,43,,none,false,Higher Degree,female,English,In the Sahara you can do a variety of winter sports.,FALSE,2.47605,main_trials,4,filler,none
184,3480,43,,none,true,Higher Degree,female,English,Johnny Depp is an American actor who took part in the ‘Pirates of the Caribbean’ movies.,TRUE,2.47605,main_trials,5,filler,none
184,2409,43,,none,true,Higher Degree,female,English,Steve Jobs was an American inventor and co-founder of Apple.,TRUE,2.47605,main_trials,6,filler,none
184,4865,43,,9,false,Higher Degree,female,English,"The Pope’s wife, she did not invite Angela Merkel for dinner.",FALSE,2.47605,main_trials,7,main,3
184,2919,43,,none,true,Higher Degree,female,English,One of the longest rivers in Europe is the Rhine.,TRUE,2.47605,main_trials,8,filler,none
184,2933,43,,0,false,Higher Degree,female,English,The king of France is bald.,FALSE,2.47605,main_trials,9,main,1
184,2631,43,,none,false,Higher Degree,female,English,London is the capital of Asia.,FALSE,2.47605,main_trials,10,filler,none
184,1246,43,,none,false,Higher Degree,female,English,Germany has volcanoes.,FALSE,2.47605,main_trials,11,special,5
184,2113,43,,none,true,Higher Degree,female,English,Harry Potter is a series of fantasy novels written by J. K. Rowling.,TRUE,2.47605,main_trials,12,filler,none
184,1885,43,,6,false,Higher Degree,female,English,The Emperor of Canada isn’t fond of sushi.,FALSE,2.47605,main_trials,13,main,2
184,9912,43,,none,false,Higher Degree,female,English,There is always a lot of snow during summer in Sydney.,FALSE,2.47605,main_trials,14,filler,none
184,5572,43,,none,true,Higher Degree,female,English,"English is the main language in Australia, Britain and New Zealand.",TRUE,2.47605,main_trials,15,filler,none
184,2867,43,,none,true,Higher Degree,female,English,The Pope is currently not married.,TRUE,2.47605,main_trials,16,special,3
184,3632,43,,none,true,Higher Degree,female,English,The heart is an organ in your body that pumps blood to other organs.,TRUE,2.47605,main_trials,17,filler,none
184,1989,43,,none,false,Higher Degree,female,English,France has a king.,FALSE,2.47605,main_trials,18,special,1
184,7400,43,,10,false,Higher Degree,female,English,"Donald Trump, his favorite nature spot is not the Belgian rainforest.",TRUE,2.47605,main_trials,19,main,4
184,2761,43,,none,true,Higher Degree,female,English,Venice is a city in Italy.,TRUE,2.47605,main_trials,20,filler,none
184,1990,43,,none,false,Higher Degree,female,English,India is the smallest country in Europe.,FALSE,2.47605,main_trials,21,filler,none
184,4131,43,,none,true,Higher Degree,female,English,Canada is a democracy.,TRUE,2.47605,main_trials,22,special,2
184,2523,43,,none,true,Higher Degree,female,English,Paris is a popular city for many tourists.,TRUE,2.47605,main_trials,23,filler,none
184,1620,43,,none,false,Higher Degree,female,English,Belgium has rainforests.,FALSE,2.47605,main_trials,24,special,4
183,8733,34,,none,true,Graduated High School,female,English,"William Shakespeare was an English poet, playwright and actor, regarded as the greatest writer in the English language.",TRUE,6.50131666666667,practice_trials,1,practice,undefined
183,3170,34,,none,true,Graduated High School,female,English,Alexander Bell invented the telephone.,TRUE,6.50131666666667,practice_trials,2,practice,undefined
183,2384,34,,none,false,Graduated High School,female,English,Spain is a country in Asia.,FALSE,6.50131666666667,practice_trials,3,practice,undefined
183,6836,34,,none,true,Graduated High School,female,English,Normally there are 32 teeth in the adult human body.,TRUE,6.50131666666667,practice_trials,4,practice,undefined
183,7051,34,,none,false,Graduated High School,female,English,World War II was a global war that lasted from 1914 to 1918.,FALSE,6.50131666666667,practice_trials,5,practice,undefined
183,11319,34,,none,true,Graduated High School,female,English,Venice is a city in Italy.,TRUE,6.50131666666667,main_trials,1,filler,none
183,6119,34,,none,true,Graduated High School,female,English,Hibernation is a deep sleep that helps animals to save energy and survive the winter without eating much.,TRUE,6.50131666666667,main_trials,2,filler,none
183,23868,34,,9,false,Graduated High School,female,English,"The volcanoes of Germany, they do not threaten Leipzig.",TRUE,6.50131666666667,main_trials,3,main,5
183,16286,34,,none,true,Graduated High School,female,English,Antarctica is the biggest continent on Earth.,FALSE,6.50131666666667,main_trials,4,filler,none
183,23633,34,,none,false,Graduated High School,female,English,Vatican City is the world's largest country by land area.,FALSE,6.50131666666667,main_trials,5,filler,none
183,1933,34,,none,false,Graduated High School,female,English,Albert Einstein was a very famous Chinese scientist.,FALSE,6.50131666666667,main_trials,6,filler,none
183,15773,34,,6,false,Graduated High School,female,English,The Emperor of Canada isn’t fond of sushi.,TRUE,6.50131666666667,main_trials,7,main,2
183,11144,34,,none,false,Graduated High School,female,English,The desert of Sweden is the hottest desert in the world.,FALSE,6.50131666666667,main_trials,8,filler,none
183,30915,34,,0,false,Graduated High School,female,English,The Belgian rainforest provides a habitat for many species.,TRUE,6.50131666666667,main_trials,9,main,4
183,7437,34,,none,true,Graduated High School,female,English,Alzheimer’s Disease is a brain disorder that affects memory.,TRUE,6.50131666666667,main_trials,10,filler,none
183,10404,34,,none,false,Graduated High School,female,English,Germany has volcanoes.,TRUE,6.50131666666667,main_trials,11,special,5
183,3946,34,,none,false,Graduated High School,female,English,China is the smallest country in South America.,FALSE,6.50131666666667,main_trials,12,filler,none
183,32125,34,,1,false,Graduated High School,female,English,"France has a king, and he is bald.",TRUE,6.50131666666667,main_trials,13,main,1
183,7302,34,,none,true,Graduated High School,female,English,Earth is the third planet from the sun.,TRUE,6.50131666666667,main_trials,14,filler,none
183,25141,34,,none,false,Graduated High School,female,English,Manchester United is a French football team based in Paris.,FALSE,6.50131666666667,main_trials,15,filler,none
183,12926,34,,none,true,Graduated High School,female,English,Canada is a democracy.,TRUE,6.50131666666667,main_trials,16,special,2
183,3799,34,,none,true,Graduated High School,female,English,Earth has a powerful magnetic field.,TRUE,6.50131666666667,main_trials,17,filler,none
183,2132,34,,none,false,Graduated High School,female,English,Belgium has rainforests.,TRUE,6.50131666666667,main_trials,18,special,4
183,22109,34,,10,false,Graduated High School,female,English,"Angela Merkel, she was not invited by the Pope’s wife for dinner.",FALSE,6.50131666666667,main_trials,19,main,3
183,10910,34,,none,true,Graduated High School,female,English,Currywurst is a popular fast food in Germany.,TRUE,6.50131666666667,main_trials,20,filler,none
183,2722,34,,none,true,Graduated High School,female,English,"Michael Jackson was one of the most popular singers, songwriters, and dancers, known also as the ‘King of Pop’.",TRUE,6.50131666666667,main_trials,21,filler,none
183,1426,34,,none,false,Graduated High School,female,English,France has a king.,TRUE,6.50131666666667,main_trials,22,special,1
183,13625,34,,none,true,Graduated High School,female,English,Brazil is the largest country in South America.,TRUE,6.50131666666667,main_trials,23,filler,none
183,24228,34,,none,true,Graduated High School,female,English,The Pope is currently not married.,TRUE,6.50131666666667,main_trials,24,special,3
182,4969,29,"It was interesting, and made re-read questions to make sure they weren't tricks. I hope I got them all correct.",none,false,Graduated High School,female,English,World War II was a global war that lasted from 1914 to 1918.,FALSE,5.03325,practice_trials,1,practice,undefined
182,5082,29,"It was interesting, and made re-read questions to make sure they weren't tricks. I hope I got them all correct.",none,true,Graduated High School,female,English,Normally there are 32 teeth in the adult human body.,TRUE,5.03325,practice_trials,2,practice,undefined
182,3722,29,"It was interesting, and made re-read questions to make sure they weren't tricks. I hope I got them all correct.",none,true,Graduated High School,female,English,"William Shakespeare was an English poet, playwright and actor, regarded as the greatest writer in the English language.",TRUE,5.03325,practice_trials,3,practice,undefined
182,8147,29,"It was interesting, and made re-read questions to make sure they weren't tricks. I hope I got them all correct.",none,true,Graduated High School,female,English,Alexander Bell invented the telephone.,TRUE,5.03325,practice_trials,4,practice,undefined
182,1952,29,"It was interesting, and made re-read questions to make sure they weren't tricks. I hope I got them all correct.",none,false,Graduated High School,female,English,Spain is a country in Asia.,FALSE,5.03325,practice_trials,5,practice,undefined
182,5322,29,"It was interesting, and made re-read questions to make sure they weren't tricks. I hope I got them all correct.",none,false,Graduated High School,female,English,Manchester United is a French football team based in Paris.,FALSE,5.03325,main_trials,1,filler,none
182,4883,29,"It was interesting, and made re-read questions to make sure they weren't tricks. I hope I got them all correct.",none,true,Graduated High School,female,English,The Brandenburg Gate is a monument in Berlin.,TRUE,5.03325,main_trials,2,filler,none
182,20565,29,"It was interesting, and made re-read questions to make sure they weren't tricks. I hope I got them all correct.",6,false,Graduated High School,female,English,The Pope’s wife isn’t a lawyer.,TRUE,5.03325,main_trials,3,main,3
182,2644,29,"It was interesting, and made re-read questions to make sure they weren't tricks. I hope I got them all correct.",none,false,Graduated High School,female,English,Big Ben is a very large building in the middle of Paris.,FALSE,5.03325,main_trials,4,filler,none
182,4990,29,"It was interesting, and made re-read questions to make sure they weren't tricks. I hope I got them all correct.",none,false,Graduated High School,female,English,The University of Oxford is a business that sells mobile phones.,FALSE,5.03325,main_trials,5,filler,none
182,5134,29,"It was interesting, and made re-read questions to make sure they weren't tricks. I hope I got them all correct.",none,true,Graduated High School,female,English,"National Geographic is a channel broadcasting documentaries about science, nature, and history.",TRUE,5.03325,main_trials,6,filler,none
182,3130,29,"It was interesting, and made re-read questions to make sure they weren't tricks. I hope I got them all correct.",1,false,Graduated High School,female,English,"Canada has an emperor, and he is fond of sushi.",FALSE,5.03325,main_trials,7,main,2
182,5795,29,"It was interesting, and made re-read questions to make sure they weren't tricks. I hope I got them all correct.",none,false,Graduated High School,female,English,The Berlin Wall was destroyed 10 years ago by Sweden.,FALSE,5.03325,main_trials,8,filler,none
182,11786,29,"It was interesting, and made re-read questions to make sure they weren't tricks. I hope I got them all correct.",9,false,Graduated High School,female,English,"The Belgian rainforest, it is not the favorite nature spot of Donald Trump.",TRUE,5.03325,main_trials,9,main,4
182,3881,29,"It was interesting, and made re-read questions to make sure they weren't tricks. I hope I got them all correct.",none,true,Graduated High School,female,English,Antarctica is a continent covered almost completely by ice.,TRUE,5.03325,main_trials,10,filler,none
182,2068,29,"It was interesting, and made re-read questions to make sure they weren't tricks. I hope I got them all correct.",none,true,Graduated High School,female,English,The Pope is currently not married.,TRUE,5.03325,main_trials,11,special,3
182,2582,29,"It was interesting, and made re-read questions to make sure they weren't tricks. I hope I got them all correct.",none,false,Graduated High School,female,English,China is the smallest country in South America.,FALSE,5.03325,main_trials,12,filler,none
182,6979,29,"It was interesting, and made re-read questions to make sure they weren't tricks. I hope I got them all correct.",10,false,Graduated High School,female,English,"Leipzig, it is not threatened by the volcanoes of Germany.",TRUE,5.03325,main_trials,13,main,5
182,2611,29,"It was interesting, and made re-read questions to make sure they weren't tricks. I hope I got them all correct.",none,false,Graduated High School,female,English,Albert Einstein was a very famous Chinese scientist.,FALSE,5.03325,main_trials,14,filler,none
182,4160,29,"It was interesting, and made re-read questions to make sure they weren't tricks. I hope I got them all correct.",none,true,Graduated High School,female,English,Brazil is the largest country in South America.,TRUE,5.03325,main_trials,15,filler,none
182,2435,29,"It was interesting, and made re-read questions to make sure they weren't tricks. I hope I got them all correct.",none,true,Graduated High School,female,English,Canada is a democracy.,TRUE,5.03325,main_trials,16,special,2
182,5128,29,"It was interesting, and made re-read questions to make sure they weren't tricks. I hope I got them all correct.",none,true,Graduated High School,female,English,"Agatha Christie was an English writer, known for her detective novels, particularly those revolving around her fictional detectives Hercule Poirot and Miss Marple.",TRUE,5.03325,main_trials,17,filler,none
182,9797,29,"It was interesting, and made re-read questions to make sure they weren't tricks. I hope I got them all correct.",none,false,Graduated High School,female,English,Belgium has rainforests.,TRUE,5.03325,main_trials,18,special,4
182,44393,29,"It was interesting, and made re-read questions to make sure they weren't tricks. I hope I got them all correct.",0,false,Graduated High School,female,English,The king of France is bald.,FALSE,5.03325,main_trials,19,main,1
182,3208,29,"It was interesting, and made re-read questions to make sure they weren't tricks. I hope I got them all correct.",none,false,Graduated High School,female,English,The Queen of England is a 20 year old man.,FALSE,5.03325,main_trials,20,filler,none
182,2621,29,"It was interesting, and made re-read questions to make sure they weren't tricks. I hope I got them all correct.",none,true,Graduated High School,female,English,Water is of major importance to all living organisms.,TRUE,5.03325,main_trials,21,filler,none
182,1900,29,"It was interesting, and made re-read questions to make sure they weren't tricks. I hope I got them all correct.",none,false,Graduated High School,female,English,Germany has volcanoes.,FALSE,5.03325,main_trials,22,special,5
182,15493,29,"It was interesting, and made re-read questions to make sure they weren't tricks. I hope I got them all correct.",none,true,Graduated High School,female,English,The Grand Canyon in Arizona (USA) is the largest canyon in the world.,FALSE,5.03325,main_trials,23,filler,none
182,2089,29,"It was interesting, and made re-read questions to make sure they weren't tricks. I hope I got them all correct.",none,false,Graduated High School,female,English,France has a king.,FALSE,5.03325,main_trials,24,special,1
181,9537,24,Worked well,none,true,Graduated College,male,English,Alexander Bell invented the telephone.,TRUE,5.58116666666667,practice_trials,1,practice,undefined
181,26950,24,Worked well,none,true,Graduated College,male,English,Normally there are 32 teeth in the adult human body.,FALSE,5.58116666666667,practice_trials,2,practice,undefined
181,4473,24,Worked well,none,false,Graduated College,male,English,Spain is a country in Asia.,FALSE,5.58116666666667,practice_trials,3,practice,undefined
181,9327,24,Worked well,none,false,Graduated College,male,English,World War II was a global war that lasted from 1914 to 1918.,FALSE,5.58116666666667,practice_trials,4,practice,undefined
181,10669,24,Worked well,none,true,Graduated College,male,English,"William Shakespeare was an English poet, playwright and actor, regarded as the greatest writer in the English language.",TRUE,5.58116666666667,practice_trials,5,practice,undefined
181,7067,24,Worked well,none,true,Graduated College,male,English,Water boils at 100 degree C.,FALSE,5.58116666666667,main_trials,1,filler,none
181,8616,24,Worked well,none,true,Graduated College,male,English,The Pacific Ocean is a large ocean between Japan and the USA.,FALSE,5.58116666666667,main_trials,2,filler,none
181,8320,24,Worked well,9,false,Graduated College,male,English,"The volcanoes of Germany, they do not threaten Leipzig.",FALSE,5.58116666666667,main_trials,3,main,5
181,5347,24,Worked well,none,true,Graduated College,male,English,The brain needs a constant supply of oxygen to perform basic functions.,TRUE,5.58116666666667,main_trials,4,filler,none
181,12085,24,Worked well,none,false,Graduated College,male,English,Africa is the continent with the highest population density.,FALSE,5.58116666666667,main_trials,5,filler,none
181,5655,24,Worked well,none,true,Graduated College,male,English,The Sahara desert in Africa is the largest desert in the world.,TRUE,5.58116666666667,main_trials,6,filler,none
181,7105,24,Worked well,6,false,Graduated College,male,English,The Pope’s wife isn’t a lawyer.,TRUE,5.58116666666667,main_trials,7,main,3
181,5780,24,Worked well,none,true,Graduated College,male,English,Canada is a country located in North America.,TRUE,5.58116666666667,main_trials,8,filler,none
181,6183,24,Worked well,1,false,Graduated College,male,English,"Canada has an emperor, and he is fond of sushi.",FALSE,5.58116666666667,main_trials,9,main,2
181,5371,24,Worked well,none,false,Graduated College,male,English,People love the polar bears in Australia.,FALSE,5.58116666666667,main_trials,10,filler,none
181,4204,24,Worked well,none,false,Graduated College,male,English,Germany has volcanoes.,FALSE,5.58116666666667,main_trials,11,special,5
181,9651,24,Worked well,none,false,Graduated College,male,English,The country with the lowest population density is China.,FALSE,5.58116666666667,main_trials,12,filler,none
181,6775,24,Worked well,10,false,Graduated College,male,English,"Donald Trump, his favorite nature spot is not the Belgian rainforest.",FALSE,5.58116666666667,main_trials,13,main,4
181,4709,24,Worked well,none,false,Graduated College,male,English,In the Sahara you can do a variety of winter sports.,FALSE,5.58116666666667,main_trials,14,filler,none
181,10277,24,Worked well,none,false,Graduated College,male,English,The Eiffel Tower is one of the most popular and frequently visited tourist attractions in Italy.,FALSE,5.58116666666667,main_trials,15,filler,none
181,3628,24,Worked well,none,true,Graduated College,male,English,The Pope is currently not married.,FALSE,5.58116666666667,main_trials,16,special,3
181,7352,24,Worked well,none,true,Graduated College,male,English,An earthquake is the result of the sudden movement of the earth’s tectonic plates.,TRUE,5.58116666666667,main_trials,17,filler,none
181,3782,24,Worked well,none,true,Graduated College,male,English,Canada is a democracy.,FALSE,5.58116666666667,main_trials,18,special,2
181,4376,24,Worked well,0,false,Graduated College,male,English,The king of France is bald.,FALSE,5.58116666666667,main_trials,19,main,1
181,4857,24,Worked well,none,false,Graduated College,male,English,The Queen of England is a 20 year old man.,FALSE,5.58116666666667,main_trials,20,filler,none
181,7231,24,Worked well,none,true,Graduated College,male,English,Charles Darwin was a biologist known for his theory of evolution.,FALSE,5.58116666666667,main_trials,21,filler,none
181,2788,24,Worked well,none,false,Graduated College,male,English,Belgium has rainforests.,FALSE,5.58116666666667,main_trials,22,special,4
181,4745,24,Worked well,none,true,Graduated College,male,English,Planet Earth is part of the galaxy ‘Milky Way’.,FALSE,5.58116666666667,main_trials,23,filler,none
181,2299,24,Worked well,none,false,Graduated College,male,English,France has a king.,FALSE,5.58116666666667,main_trials,24,special,1
180,13822,48,"A surprisingly tricky study! Thoroughly enjoyed completing it, despite several red herrings!!",none,true,Higher Degree,female,English,"William Shakespeare was an English poet, playwright and actor, regarded as the greatest writer in the English language.",TRUE,4.68158333333333,practice_trials,1,practice,undefined
180,11380,48,"A surprisingly tricky study! Thoroughly enjoyed completing it, despite several red herrings!!",none,true,Higher Degree,female,English,Normally there are 32 teeth in the adult human body.,TRUE,4.68158333333333,practice_trials,2,practice,undefined
180,369,48,"A surprisingly tricky study! Thoroughly enjoyed completing it, despite several red herrings!!",none,true,Higher Degree,female,English,Alexander Bell invented the telephone.,TRUE,4.68158333333333,practice_trials,3,practice,undefined
180,2102,48,"A surprisingly tricky study! Thoroughly enjoyed completing it, despite several red herrings!!",none,false,Higher Degree,female,English,Spain is a country in Asia.,FALSE,4.68158333333333,practice_trials,4,practice,undefined
180,5279,48,"A surprisingly tricky study! Thoroughly enjoyed completing it, despite several red herrings!!",none,false,Higher Degree,female,English,World War II was a global war that lasted from 1914 to 1918.,TRUE,4.68158333333333,practice_trials,5,practice,undefined
180,6922,48,"A surprisingly tricky study! Thoroughly enjoyed completing it, despite several red herrings!!",none,true,Higher Degree,female,English,The Great Pyramid of Giza is one of the Seven Wonders of the Ancient World and the only one of these ancient world wonders which still exists.,FALSE,4.68158333333333,main_trials,1,filler,none
180,4577,48,"A surprisingly tricky study! Thoroughly enjoyed completing it, despite several red herrings!!",none,false,Higher Degree,female,English,Australia has a very large border with Brazil.,FALSE,4.68158333333333,main_trials,2,filler,none
180,4825,48,"A surprisingly tricky study! Thoroughly enjoyed completing it, despite several red herrings!!",1,false,Higher Degree,female,English,"France has a king, and he is bald.",FALSE,4.68158333333333,main_trials,3,main,1
180,3165,48,"A surprisingly tricky study! Thoroughly enjoyed completing it, despite several red herrings!!",none,true,Higher Degree,female,English,The Great Wall is one of the seven wonders of the world.,TRUE,4.68158333333333,main_trials,4,filler,none
180,2767,48,"A surprisingly tricky study! Thoroughly enjoyed completing it, despite several red herrings!!",none,false,Higher Degree,female,English,James Bond is a spanish dancer from Madrid.,FALSE,4.68158333333333,main_trials,5,filler,none
180,4073,48,"A surprisingly tricky study! Thoroughly enjoyed completing it, despite several red herrings!!",none,true,Higher Degree,female,English,Leonardo DiCaprio is a famous actor.,TRUE,4.68158333333333,main_trials,6,filler,none
180,2690,48,"A surprisingly tricky study! Thoroughly enjoyed completing it, despite several red herrings!!",6,false,Higher Degree,female,English,The Pope’s wife isn’t a lawyer.,FALSE,4.68158333333333,main_trials,7,main,3
180,4572,48,"A surprisingly tricky study! Thoroughly enjoyed completing it, despite several red herrings!!",none,true,Higher Degree,female,English,Johnny Depp is an American actor who took part in the ‘Pirates of the Caribbean’ movies.,TRUE,4.68158333333333,main_trials,8,filler,none
180,6553,48,"A surprisingly tricky study! Thoroughly enjoyed completing it, despite several red herrings!!",9,false,Higher Degree,female,English,"The Emperor of Canada, he does not reside in Dresden for the summer.",FALSE,4.68158333333333,main_trials,9,main,2
180,2791,48,"A surprisingly tricky study! Thoroughly enjoyed completing it, despite several red herrings!!",none,true,Higher Degree,female,English,Monkeys like to eat bananas.,TRUE,4.68158333333333,main_trials,10,filler,none
180,2425,48,"A surprisingly tricky study! Thoroughly enjoyed completing it, despite several red herrings!!",none,false,Higher Degree,female,English,France has a king.,FALSE,4.68158333333333,main_trials,11,special,1
180,4635,48,"A surprisingly tricky study! Thoroughly enjoyed completing it, despite several red herrings!!",none,false,Higher Degree,female,English,The Eiffel Tower is one of the most popular and frequently visited tourist attractions in Italy.,FALSE,4.68158333333333,main_trials,12,filler,none
180,6012,48,"A surprisingly tricky study! Thoroughly enjoyed completing it, despite several red herrings!!",10,false,Higher Degree,female,English,"Leipzig, it is not threatened by the volcanoes of Germany.",TRUE,4.68158333333333,main_trials,13,main,5
180,5336,48,"A surprisingly tricky study! Thoroughly enjoyed completing it, despite several red herrings!!",none,true,Higher Degree,female,English,The Grand Canyon in Arizona (USA) is the largest canyon in the world.,TRUE,4.68158333333333,main_trials,14,filler,none
180,2962,48,"A surprisingly tricky study! Thoroughly enjoyed completing it, despite several red herrings!!",none,true,Higher Degree,female,English,Email is a method of exchanging messages.,TRUE,4.68158333333333,main_trials,15,filler,none
180,4291,48,"A surprisingly tricky study! Thoroughly enjoyed completing it, despite several red herrings!!",none,true,Higher Degree,female,English,The Pope is currently not married.,TRUE,4.68158333333333,main_trials,16,special,3
180,3668,48,"A surprisingly tricky study! Thoroughly enjoyed completing it, despite several red herrings!!",none,false,Higher Degree,female,English,People love the polar bears in Australia.,FALSE,4.68158333333333,main_trials,17,filler,none
180,2529,48,"A surprisingly tricky study! Thoroughly enjoyed completing it, despite several red herrings!!",none,true,Higher Degree,female,English,Canada is a democracy.,TRUE,4.68158333333333,main_trials,18,special,2
180,4076,48,"A surprisingly tricky study! Thoroughly enjoyed completing it, despite several red herrings!!",0,false,Higher Degree,female,English,The Belgian rainforest provides a habitat for many species.,TRUE,4.68158333333333,main_trials,19,main,4
180,3886,48,"A surprisingly tricky study! Thoroughly enjoyed completing it, despite several red herrings!!",none,true,Higher Degree,female,English,Mount Everest is the highest mountain on Earth.,FALSE,4.68158333333333,main_trials,20,filler,none
180,3032,48,"A surprisingly tricky study! Thoroughly enjoyed completing it, despite several red herrings!!",none,false,Higher Degree,female,English,China is the smallest country in South America.,FALSE,4.68158333333333,main_trials,21,filler,none
180,5758,48,"A surprisingly tricky study! Thoroughly enjoyed completing it, despite several red herrings!!",none,false,Higher Degree,female,English,Germany has volcanoes.,FALSE,4.68158333333333,main_trials,22,special,5
180,2977,48,"A surprisingly tricky study! Thoroughly enjoyed completing it, despite several red herrings!!",none,true,Higher Degree,female,English,Antarctica is the biggest continent on Earth.,TRUE,4.68158333333333,main_trials,23,filler,none
180,4093,48,"A surprisingly tricky study! Thoroughly enjoyed completing it, despite several red herrings!!",none,false,Higher Degree,female,English,Belgium has rainforests.,FALSE,4.68158333333333,main_trials,24,special,4
179,1710,32,,none,true,Graduated College,female,English,Alexander Bell invented the telephone.,FALSE,1.46096666666667,practice_trials,1,practice,undefined
179,2181,32,,none,false,Graduated College,female,English,Spain is a country in Asia.,FALSE,1.46096666666667,practice_trials,2,practice,undefined
179,2453,32,,none,true,Graduated College,female,English,Normally there are 32 teeth in the adult human body.,TRUE,1.46096666666667,practice_trials,3,practice,undefined
179,1004,32,,none,false,Graduated College,female,English,World War II was a global war that lasted from 1914 to 1918.,FALSE,1.46096666666667,practice_trials,4,practice,undefined
179,1066,32,,none,true,Graduated College,female,English,"William Shakespeare was an English poet, playwright and actor, regarded as the greatest writer in the English language.",FALSE,1.46096666666667,practice_trials,5,practice,undefined
179,2602,32,,none,false,Graduated College,female,English,Manchester United is a French football team based in Paris.,FALSE,1.46096666666667,main_trials,1,filler,none
179,2880,32,,none,true,Graduated College,female,English,The University of Edinburgh is located in Great Britain.,TRUE,1.46096666666667,main_trials,2,filler,none
179,3487,32,,0,false,Graduated College,female,English,The Pope’s wife is a lawyer.,FALSE,1.46096666666667,main_trials,3,main,3
179,4485,32,,none,false,Graduated College,female,English,Australia has a very large border with Brazil.,FALSE,1.46096666666667,main_trials,4,filler,none
179,2955,32,,none,true,Graduated College,female,English,"The Sydney Opera House, built in Australia’s biggest city, is famous for its roof’s architecture.",TRUE,1.46096666666667,main_trials,5,filler,none
179,4289,32,,none,true,Graduated College,female,English,The Pacific Ocean is a large ocean between Japan and the USA.,TRUE,1.46096666666667,main_trials,6,filler,none
179,1305,32,,1,false,Graduated College,female,English,"Canada has an emperor, and he is fond of sushi.",FALSE,1.46096666666667,main_trials,7,main,2
179,2460,32,,none,true,Graduated College,female,English,"The simplest, functioning part of an organism is a cell.",TRUE,1.46096666666667,main_trials,8,filler,none
179,2116,32,,10,false,Graduated College,female,English,"Donald Trump, his favorite nature spot is not the Belgian rainforest.",FALSE,1.46096666666667,main_trials,9,main,4
179,4343,32,,none,true,Graduated College,female,English,The Earth was once believed to be the centre of the universe.,TRUE,1.46096666666667,main_trials,10,filler,none
179,1275,32,,none,true,Graduated College,female,English,The Pope is currently not married.,TRUE,1.46096666666667,main_trials,11,special,3
179,1612,32,,none,true,Graduated College,female,English,Paris is a popular city for many tourists.,TRUE,1.46096666666667,main_trials,12,filler,none
179,3098,32,,9,false,Graduated College,female,English,"The King of France, he did not call Emmanuel Macron last night.",TRUE,1.46096666666667,main_trials,13,main,1
179,1590,32,,none,true,Graduated College,female,English,Harry Potter is a series of fantasy novels written by J. K. Rowling.,TRUE,1.46096666666667,main_trials,14,filler,none
179,1822,32,,none,false,Graduated College,female,English,Taj Mahal is a mausoleum on the bank of the river in the city of Rome.,FALSE,1.46096666666667,main_trials,15,filler,none
179,2759,32,,none,true,Graduated College,female,English,Canada is a democracy.,TRUE,1.46096666666667,main_trials,16,special,2
179,2729,32,,none,false,Graduated College,female,English,Africa is the continent with the highest population density.,FALSE,1.46096666666667,main_trials,17,filler,none
179,1305,32,,none,false,Graduated College,female,English,Belgium has rainforests.,FALSE,1.46096666666667,main_trials,18,special,4
179,2962,32,,6,false,Graduated College,female,English,The volcanoes of Germany do not dominate the landscape.,TRUE,1.46096666666667,main_trials,19,main,5
179,1755,32,,none,true,Graduated College,female,English,There were two world wars in the 20th Century.,TRUE,1.46096666666667,main_trials,20,filler,none
179,3112,32,,none,true,Graduated College,female,English,Planet Earth is part of the galaxy ‘Milky Way’.,TRUE,1.46096666666667,main_trials,21,filler,none
179,1133,32,,none,false,Graduated College,female,English,France has a king.,FALSE,1.46096666666667,main_trials,22,special,1
179,3165,32,,none,false,Graduated College,female,English,The Eiffel Tower is one of the most popular and frequently visited tourist attractions in Italy.,FALSE,1.46096666666667,main_trials,23,filler,none
179,1680,32,,none,false,Graduated College,female,English,Germany has volcanoes.,FALSE,1.46096666666667,main_trials,24,special,5
178,5744,35,,none,false,Graduated College,female,English,World War II was a global war that lasted from 1914 to 1918.,FALSE,3.30256666666667,practice_trials,1,practice,undefined
178,1862,35,,none,false,Graduated College,female,English,Spain is a country in Asia.,FALSE,3.30256666666667,practice_trials,2,practice,undefined
178,5936,35,,none,true,Graduated College,female,English,"William Shakespeare was an English poet, playwright and actor, regarded as the greatest writer in the English language.",TRUE,3.30256666666667,practice_trials,3,practice,undefined
178,2440,35,,none,true,Graduated College,female,English,Normally there are 32 teeth in the adult human body.,TRUE,3.30256666666667,practice_trials,4,practice,undefined
178,2288,35,,none,true,Graduated College,female,English,Alexander Bell invented the telephone.,TRUE,3.30256666666667,practice_trials,5,practice,undefined
178,3864,35,,none,true,Graduated College,female,English,Venice is a city in Italy.,TRUE,3.30256666666667,main_trials,1,filler,none
178,2656,35,,none,false,Graduated College,female,English,Vatican City is the world's largest country by land area.,FALSE,3.30256666666667,main_trials,2,filler,none
178,8880,35,,6,false,Graduated College,female,English,The King of France isn’t bald.,FALSE,3.30256666666667,main_trials,3,main,1
178,2135,35,,none,true,Graduated College,female,English,The capital city of Japan is Tokyo.,TRUE,3.30256666666667,main_trials,4,filler,none
178,4487,35,,none,false,Graduated College,female,English,Elvis Presley is one of the most popular musicians in this decade.,FALSE,3.30256666666667,main_trials,5,filler,none
178,4632,35,,none,true,Graduated College,female,English,"Birds are a group of vertebrates, characterized by feathers and wings.",TRUE,3.30256666666667,main_trials,6,filler,none
178,2863,35,,0,false,Graduated College,female,English,The Pope’s wife is a lawyer.,FALSE,3.30256666666667,main_trials,7,main,3
178,5688,35,,none,true,Graduated College,female,English,"The statue of Jesus Christ is a famous sightseeing attraction in the city of Rio de Janeiro, Brazil.",TRUE,3.30256666666667,main_trials,8,filler,none
178,3008,35,,1,false,Graduated College,female,English,"There is a rainforest in Belgium, and it provides a habitat for many species.",FALSE,3.30256666666667,main_trials,9,main,4
178,6351,35,,none,true,Graduated College,female,English,The University of Edinburgh is located in Great Britain.,TRUE,3.30256666666667,main_trials,10,filler,none
178,26344,35,,none,false,Graduated College,female,English,France has a king.,FALSE,3.30256666666667,main_trials,11,special,1
178,6856,35,,none,true,Graduated College,female,English,The Republic of South Africa is located in the continent of Africa.,TRUE,3.30256666666667,main_trials,12,filler,none
178,8640,35,,10,false,Graduated College,female,English,"Dresden, it is not the home of the Emperor of Canada for the summer.",TRUE,3.30256666666667,main_trials,13,main,2
178,3169,35,,none,true,Graduated College,female,English,"National Geographic is a channel broadcasting documentaries about science, nature, and history.",TRUE,3.30256666666667,main_trials,14,filler,none
178,5927,35,,none,true,Graduated College,female,English,"Germany shares borders with France, Belgium and Denmark.",TRUE,3.30256666666667,main_trials,15,filler,none
178,2664,35,,none,true,Graduated College,female,English,The Pope is currently not married.,TRUE,3.30256666666667,main_trials,16,special,3
178,3416,35,,none,true,Graduated College,female,English,Charles Darwin was a biologist known for his theory of evolution.,TRUE,3.30256666666667,main_trials,17,filler,none
178,2320,35,,none,false,Graduated College,female,English,Belgium has rainforests.,FALSE,3.30256666666667,main_trials,18,special,4
178,7728,35,,9,false,Graduated College,female,English,"The volcanoes of Germany, they do not threaten Leipzig.",FALSE,3.30256666666667,main_trials,19,main,5
178,2519,35,,none,true,Graduated College,female,English,The Solar System includes the planet Earth.,TRUE,3.30256666666667,main_trials,20,filler,none
178,5000,35,,none,true,Graduated College,female,English,An earthquake is the result of the sudden movement of the earth’s tectonic plates.,TRUE,3.30256666666667,main_trials,21,filler,none
178,2016,35,,none,true,Graduated College,female,English,Canada is a democracy.,TRUE,3.30256666666667,main_trials,22,special,2
178,5551,35,,none,true,Graduated College,female,English,Dinosaurs became extinct millions of years ago.,TRUE,3.30256666666667,main_trials,23,filler,none
178,2319,35,,none,false,Graduated College,female,English,Germany has volcanoes.,FALSE,3.30256666666667,main_trials,24,special,5
177,8973,23,,none,false,Graduated College,female,english,World War II was a global war that lasted from 1914 to 1918.,TRUE,4.08375,practice_trials,1,practice,undefined
177,4860,23,,none,true,Graduated College,female,english,Alexander Bell invented the telephone.,TRUE,4.08375,practice_trials,2,practice,undefined
177,6381,23,,none,false,Graduated College,female,english,Spain is a country in Asia.,FALSE,4.08375,practice_trials,3,practice,undefined
177,3783,23,,none,true,Graduated College,female,english,"William Shakespeare was an English poet, playwright and actor, regarded as the greatest writer in the English language.",TRUE,4.08375,practice_trials,4,practice,undefined
177,2877,23,,none,true,Graduated College,female,english,Normally there are 32 teeth in the adult human body.,TRUE,4.08375,practice_trials,5,practice,undefined
177,2788,23,,none,false,Graduated College,female,english,William Shakespeare was a famous Italian painter in Rome.,FALSE,4.08375,main_trials,1,filler,none
177,4584,23,,none,true,Graduated College,female,english,An earthquake is the result of the sudden movement of the earth’s tectonic plates.,TRUE,4.08375,main_trials,2,filler,none
177,6042,23,,10,false,Graduated College,female,english,"Angela Merkel, she was not invited by the Pope’s wife for dinner.",FALSE,4.08375,main_trials,3,main,3
177,4415,23,,none,true,Graduated College,female,english,Currywurst is a popular fast food in Germany.,TRUE,4.08375,main_trials,4,filler,none
177,4471,23,,none,false,Graduated College,female,english,There is always a lot of snow during summer in Sydney.,FALSE,4.08375,main_trials,5,filler,none
177,4851,23,,none,false,Graduated College,female,english,Planet Earth is the sixth planet from the Sun.,TRUE,4.08375,main_trials,6,filler,none
177,3341,23,,0,false,Graduated College,female,english,The Belgian rainforest provides a habitat for many species.,TRUE,4.08375,main_trials,7,main,4
177,2163,23,,none,true,Graduated College,female,english,Paris is a popular city for many tourists.,TRUE,4.08375,main_trials,8,filler,none
177,5329,23,,9,false,Graduated College,female,english,"The Emperor of Canada, he does not reside in Dresden for the summer.",FALSE,4.08375,main_trials,9,main,2
177,4488,23,,none,true,Graduated College,female,english,Antarctica is a continent covered almost completely by ice.,TRUE,4.08375,main_trials,10,filler,none
177,1714,23,,none,true,Graduated College,female,english,The Pope is currently not married.,TRUE,4.08375,main_trials,11,special,3
177,2372,23,,none,true,Graduated College,female,english,The capital city of Russia is Moscow.,TRUE,4.08375,main_trials,12,filler,none
177,2917,23,,6,false,Graduated College,female,english,The King of France isn’t bald.,TRUE,4.08375,main_trials,13,main,1
177,3822,23,,none,false,Graduated College,female,english,Vatican City is the world's largest country by land area.,FALSE,4.08375,main_trials,14,filler,none
177,6447,23,,none,true,Graduated College,female,english,The European Union (EU) is a political and economic union of 28 member states that are located primarily in Europe.,TRUE,4.08375,main_trials,15,filler,none
177,2083,23,,none,false,Graduated College,female,english,Belgium has rainforests.,FALSE,4.08375,main_trials,16,special,4
177,5096,23,,none,true,Graduated College,female,english,"Egypt is famous for the pyramids, the pharaohs and the Nile River.",TRUE,4.08375,main_trials,17,filler,none
177,3117,23,,none,true,Graduated College,female,english,Canada is a democracy.,FALSE,4.08375,main_trials,18,special,2
177,4373,23,,1,false,Graduated College,female,english,"There are volcanoes in Germany, and they dominate the landscape.",FALSE,4.08375,main_trials,19,main,5
177,3254,23,,none,true,Graduated College,female,english,Harry Potter is a series of fantasy novels written by J. K. Rowling.,TRUE,4.08375,main_trials,20,filler,none
177,1650,23,,none,true,Graduated College,female,english,Monkeys like to eat bananas.,TRUE,4.08375,main_trials,21,filler,none
177,1959,23,,none,false,Graduated College,female,english,France has a king.,FALSE,4.08375,main_trials,22,special,1
177,4947,23,,none,true,Graduated College,female,english,"Birds are a group of vertebrates, characterized by feathers and wings.",TRUE,4.08375,main_trials,23,filler,none
177,1778,23,,none,false,Graduated College,female,english,Germany has volcanoes.,FALSE,4.08375,main_trials,24,special,5
176,15874,29,,none,true,Graduated High School,male,English,Alexander Bell invented the telephone.,FALSE,4.68596666666667,practice_trials,1,practice,undefined
176,2984,29,,none,false,Graduated High School,male,English,Spain is a country in Asia.,TRUE,4.68596666666667,practice_trials,2,practice,undefined
176,5787,29,,none,true,Graduated High School,male,English,"William Shakespeare was an English poet, playwright and actor, regarded as the greatest writer in the English language.",TRUE,4.68596666666667,practice_trials,3,practice,undefined
176,3612,29,,none,true,Graduated High School,male,English,Normally there are 32 teeth in the adult human body.,TRUE,4.68596666666667,practice_trials,4,practice,undefined
176,5128,29,,none,false,Graduated High School,male,English,World War II was a global war that lasted from 1914 to 1918.,FALSE,4.68596666666667,practice_trials,5,practice,undefined
176,6828,29,,none,true,Graduated High School,male,English,"Michael Jackson was one of the most popular singers, songwriters, and dancers, known also as the ‘King of Pop’.",TRUE,4.68596666666667,main_trials,1,filler,none
176,5413,29,,none,true,Graduated High School,male,English,The brain is made up of very special cells called neurons.,TRUE,4.68596666666667,main_trials,2,filler,none
176,10647,29,,9,false,Graduated High School,male,English,"The Pope’s wife, she did not invite Angela Merkel for dinner.",FALSE,4.68596666666667,main_trials,3,main,3
176,10031,29,,none,true,Graduated High School,male,English,In the German language every noun has a gender.,FALSE,4.68596666666667,main_trials,4,filler,none
176,15350,29,,none,true,Graduated High School,male,English,The European Union (EU) is a political and economic union of 28 member states that are located primarily in Europe.,TRUE,4.68596666666667,main_trials,5,filler,none
176,5273,29,,none,true,Graduated High School,male,English,The Moon is an astronomical body that orbits planet Earth.,TRUE,4.68596666666667,main_trials,6,filler,none
176,5120,29,,1,false,Graduated High School,male,English,"France has a king, and he is bald.",FALSE,4.68596666666667,main_trials,7,main,1
176,10345,29,,none,false,Graduated High School,male,English,The Eiffel Tower is one of the most popular and frequently visited tourist attractions in Italy.,FALSE,4.68596666666667,main_trials,8,filler,none
176,12713,29,,10,false,Graduated High School,male,English,"Dresden, it is not the home of the Emperor of Canada for the summer.",FALSE,4.68596666666667,main_trials,9,main,2
176,5082,29,,none,false,Graduated High School,male,English,Justin Bieber has won 3 gold olympic medals.,FALSE,4.68596666666667,main_trials,10,filler,none
176,4930,29,,none,true,Graduated High School,male,English,The Pope is currently not married.,TRUE,4.68596666666667,main_trials,11,special,3
176,4663,29,,none,true,Graduated High School,male,English,The Solar System includes the planet Earth.,TRUE,4.68596666666667,main_trials,12,filler,none
176,12121,29,,6,false,Graduated High School,male,English,The Belgian rainforest doesn’t provide a habitat for many species.,FALSE,4.68596666666667,main_trials,13,main,4
176,4175,29,,none,true,Graduated High School,male,English,Three is a prime number.,TRUE,4.68596666666667,main_trials,14,filler,none
176,6184,29,,none,true,Graduated High School,male,English,Water is of major importance to all living organisms.,TRUE,4.68596666666667,main_trials,15,filler,none
176,8355,29,,none,false,Graduated High School,male,English,France has a king.,TRUE,4.68596666666667,main_trials,16,special,1
176,16976,29,,none,true,Graduated High School,male,English,The Pacific Ocean is a large ocean between Japan and the USA.,FALSE,4.68596666666667,main_trials,17,filler,none
176,6835,29,,none,true,Graduated High School,male,English,Canada is a democracy.,TRUE,4.68596666666667,main_trials,18,special,2
176,10416,29,,0,false,Graduated High School,male,English,The volcanoes of Germany dominate the landscape.,FALSE,4.68596666666667,main_trials,19,main,5
176,8397,29,,none,true,Graduated High School,male,English,Antarctica is the biggest continent on Earth.,FALSE,4.68596666666667,main_trials,20,filler,none
176,4761,29,,none,true,Graduated High School,male,English,The Statue of Liberty is a colossal sculpture on Liberty Island in New York City in the United States.,TRUE,4.68596666666667,main_trials,21,filler,none
176,6006,29,,none,false,Graduated High School,male,English,Belgium has rainforests.,TRUE,4.68596666666667,main_trials,22,special,4
176,7837,29,,none,true,Graduated High School,male,English,The heart is an organ in your body that pumps blood to other organs.,TRUE,4.68596666666667,main_trials,23,filler,none
176,3718,29,,none,false,Graduated High School,male,English,Germany has volcanoes.,TRUE,4.68596666666667,main_trials,24,special,5
175,6815,32,,none,true,Graduated College,female,English,"William Shakespeare was an English poet, playwright and actor, regarded as the greatest writer in the English language.",TRUE,3.90543333333333,practice_trials,1,practice,undefined
175,3049,32,,none,true,Graduated College,female,English,Normally there are 32 teeth in the adult human body.,TRUE,3.90543333333333,practice_trials,2,practice,undefined
175,3132,32,,none,true,Graduated College,female,English,Alexander Bell invented the telephone.,TRUE,3.90543333333333,practice_trials,3,practice,undefined
175,1838,32,,none,false,Graduated College,female,English,Spain is a country in Asia.,FALSE,3.90543333333333,practice_trials,4,practice,undefined
175,10111,32,,none,false,Graduated College,female,English,World War II was a global war that lasted from 1914 to 1918.,TRUE,3.90543333333333,practice_trials,5,practice,undefined
175,6452,32,,none,true,Graduated College,female,English,The Grand Canyon in Arizona (USA) is the largest canyon in the world.,TRUE,3.90543333333333,main_trials,1,filler,none
175,2214,32,,none,true,Graduated College,female,English,The capital city of Russia is Moscow.,TRUE,3.90543333333333,main_trials,2,filler,none
175,5459,32,,6,false,Graduated College,female,English,The King of France isn’t bald.,FALSE,3.90543333333333,main_trials,3,main,1
175,5017,32,,none,true,Graduated College,female,English,Water boils at 100 degree C.,TRUE,3.90543333333333,main_trials,4,filler,none
175,4735,32,,none,false,Graduated College,female,English,Africa is the continent with the highest population density.,TRUE,3.90543333333333,main_trials,5,filler,none
175,4007,32,,none,true,Graduated College,female,English,One of the longest rivers in Europe is the Rhine.,TRUE,3.90543333333333,main_trials,6,filler,none
175,9349,32,,1,false,Graduated College,female,English,"There are volcanoes in Germany, and they dominate the landscape.",FALSE,3.90543333333333,main_trials,7,main,5
175,2443,32,,none,true,Graduated College,female,English,Trees absorb carbon dioxide and release oxygen.,TRUE,3.90543333333333,main_trials,8,filler,none
175,5959,32,,9,false,Graduated College,female,English,"The Pope’s wife, she did not invite Angela Merkel for dinner.",TRUE,3.90543333333333,main_trials,9,main,3
175,4663,32,,none,false,Graduated College,female,English,In the Sahara you can do a variety of winter sports.,FALSE,3.90543333333333,main_trials,10,filler,none
175,3361,32,,none,false,Graduated College,female,English,France has a king.,TRUE,3.90543333333333,main_trials,11,special,1
175,3609,32,,none,true,Graduated College,female,English,"Michael Jackson was one of the most popular singers, songwriters, and dancers, known also as the ‘King of Pop’.",TRUE,3.90543333333333,main_trials,12,filler,none
175,8258,32,,10,false,Graduated College,female,English,"Dresden, it is not the home of the Emperor of Canada for the summer.",FALSE,3.90543333333333,main_trials,13,main,2
175,6875,32,,none,false,Graduated College,female,English,Vatican City is the world's largest country by land area.,FALSE,3.90543333333333,main_trials,14,filler,none
175,3960,32,,none,false,Graduated College,female,English,Taj Mahal is a mausoleum on the bank of the river in the city of Rome.,TRUE,3.90543333333333,main_trials,15,filler,none
175,2324,32,,none,false,Graduated College,female,English,Germany has volcanoes.,FALSE,3.90543333333333,main_trials,16,special,5
175,5416,32,,none,true,Graduated College,female,English,Earth is the third planet from the sun.,TRUE,3.90543333333333,main_trials,17,filler,none
175,4273,32,,none,true,Graduated College,female,English,The Pope is currently not married.,TRUE,3.90543333333333,main_trials,18,special,3
175,5903,32,,0,false,Graduated College,female,English,The Belgian rainforest provides a habitat for many species.,TRUE,3.90543333333333,main_trials,19,main,4
175,4236,32,,none,true,Graduated College,female,English,Mount Everest is the highest mountain on Earth.,TRUE,3.90543333333333,main_trials,20,filler,none
175,3256,32,,none,true,Graduated College,female,English,Russia is one of the biggest countries in the world.,TRUE,3.90543333333333,main_trials,21,filler,none
175,2884,32,,none,true,Graduated College,female,English,Canada is a democracy.,TRUE,3.90543333333333,main_trials,22,special,2
175,8451,32,,none,false,Graduated College,female,English,India is the smallest country in Europe.,FALSE,3.90543333333333,main_trials,23,filler,none
175,1886,32,,none,false,Graduated College,female,English,Belgium has rainforests.,TRUE,3.90543333333333,main_trials,24,special,4
174,25751,51,,none,true,Graduated High School,male,English,"William Shakespeare was an English poet, playwright and actor, regarded as the greatest writer in the English language.",TRUE,4.8326,practice_trials,1,practice,undefined
174,4583,51,,none,true,Graduated High School,male,English,Normally there are 32 teeth in the adult human body.,TRUE,4.8326,practice_trials,2,practice,undefined
174,6063,51,,none,false,Graduated High School,male,English,World War II was a global war that lasted from 1914 to 1918.,TRUE,4.8326,practice_trials,3,practice,undefined
174,5345,51,,none,true,Graduated High School,male,English,Alexander Bell invented the telephone.,TRUE,4.8326,practice_trials,4,practice,undefined
174,3579,51,,none,false,Graduated High School,male,English,Spain is a country in Asia.,FALSE,4.8326,practice_trials,5,practice,undefined
174,9161,51,,none,false,Graduated High School,male,English,Justin Bieber has won 3 gold olympic medals.,FALSE,4.8326,main_trials,1,filler,none
174,7693,51,,none,true,Graduated High School,male,English,Charles Darwin was a biologist known for his theory of evolution.,TRUE,4.8326,main_trials,2,filler,none
174,5023,51,,6,false,Graduated High School,male,English,The Pope’s wife isn’t a lawyer.,FALSE,4.8326,main_trials,3,main,3
174,6155,51,,none,false,Graduated High School,male,English,Switzerland is a member of the European Union.,TRUE,4.8326,main_trials,4,filler,none
174,5392,51,,none,true,Graduated High School,male,English,Antarctica is a continent covered almost completely by ice.,TRUE,4.8326,main_trials,5,filler,none
174,6915,51,,none,true,Graduated High School,male,English,There are more than 2 countries in the United Nations.,TRUE,4.8326,main_trials,6,filler,none
174,5085,51,,0,false,Graduated High School,male,English,The volcanoes of Germany dominate the landscape.,TRUE,4.8326,main_trials,7,main,5
174,9119,51,,none,false,Graduated High School,male,English,The Eiffel Tower is one of the most popular and frequently visited tourist attractions in Italy.,TRUE,4.8326,main_trials,8,filler,none
174,13621,51,,10,false,Graduated High School,male,English,"Donald Trump, his favorite nature spot is not the Belgian rainforest.",TRUE,4.8326,main_trials,9,main,4
174,4263,51,,none,false,Graduated High School,male,English,Albert Einstein was a very famous Chinese scientist.,FALSE,4.8326,main_trials,10,filler,none
174,9227,51,,none,true,Graduated High School,male,English,The Pope is currently not married.,TRUE,4.8326,main_trials,11,special,3
174,7764,51,,none,true,Graduated High School,male,English,"The simplest, functioning part of an organism is a cell.",FALSE,4.8326,main_trials,12,filler,none
174,11986,51,,9,false,Graduated High School,male,English,"The King of France, he did not call Emmanuel Macron last night.",FALSE,4.8326,main_trials,13,main,1
174,4284,51,,none,true,Graduated High School,male,English,The Grand Canyon in Arizona (USA) is the largest canyon in the world.,TRUE,4.8326,main_trials,14,filler,none
174,7741,51,,none,true,Graduated High School,male,English,Trees absorb carbon dioxide and release oxygen.,TRUE,4.8326,main_trials,15,filler,none
174,3613,51,,none,false,Graduated High School,male,English,Germany has volcanoes.,FALSE,4.8326,main_trials,16,special,5
174,5769,51,,none,true,Graduated High School,male,English,"English is the main language in Australia, Britain and New Zealand.",TRUE,4.8326,main_trials,17,filler,none
174,3877,51,,none,false,Graduated High School,male,English,Belgium has rainforests.,FALSE,4.8326,main_trials,18,special,4
174,8061,51,,1,false,Graduated High School,male,English,"Canada has an emperor, and he is fond of sushi.",FALSE,4.8326,main_trials,19,main,2
174,5355,51,,none,true,Graduated High School,male,English,The Sun is in the centre of the Solar System.,TRUE,4.8326,main_trials,20,filler,none
174,12039,51,,none,true,Graduated High School,male,English,Square root of 16 is 4.,TRUE,4.8326,main_trials,21,filler,none
174,7225,51,,none,false,Graduated High School,male,English,France has a king.,FALSE,4.8326,main_trials,22,special,1
174,4458,51,,none,false,Graduated High School,male,English,Big Ben is a very large building in the middle of Paris.,FALSE,4.8326,main_trials,23,filler,none
174,5373,51,,none,true,Graduated High School,male,English,Canada is a democracy.,FALSE,4.8326,main_trials,24,special,2
173,7232,20,,none,false,Graduated High School,female,English,World War II was a global war that lasted from 1914 to 1918.,TRUE,3.49776666666667,practice_trials,1,practice,undefined
173,7163,20,,none,true,Graduated High School,female,English,"William Shakespeare was an English poet, playwright and actor, regarded as the greatest writer in the English language.",TRUE,3.49776666666667,practice_trials,2,practice,undefined
173,1719,20,,none,false,Graduated High School,female,English,Spain is a country in Asia.,FALSE,3.49776666666667,practice_trials,3,practice,undefined
173,5763,20,,none,true,Graduated High School,female,English,Alexander Bell invented the telephone.,FALSE,3.49776666666667,practice_trials,4,practice,undefined
173,4453,20,,none,true,Graduated High School,female,English,Normally there are 32 teeth in the adult human body.,TRUE,3.49776666666667,practice_trials,5,practice,undefined
173,3926,20,,none,true,Graduated High School,female,English,The brain is made up of very special cells called neurons.,TRUE,3.49776666666667,main_trials,1,filler,none
173,2701,20,,none,false,Graduated High School,female,English,The University of Oxford is a business that sells mobile phones.,FALSE,3.49776666666667,main_trials,2,filler,none
173,3157,20,,1,false,Graduated High School,female,English,"France has a king, and he is bald.",FALSE,3.49776666666667,main_trials,3,main,1
173,5544,20,,none,true,Graduated High School,female,English,Test of English as a Foreign Language (TOEFL) is a standardized test to measure the English language ability of non-native speakers.,TRUE,3.49776666666667,main_trials,4,filler,none
173,2442,20,,none,true,Graduated High School,female,English,Email is a method of exchanging messages.,TRUE,3.49776666666667,main_trials,5,filler,none
173,3235,20,,none,true,Graduated High School,female,English,The European Union (EU) is a political and economic union of 28 member states that are located primarily in Europe.,TRUE,3.49776666666667,main_trials,6,filler,none
173,5458,20,,9,false,Graduated High School,female,English,"The Emperor of Canada, he does not reside in Dresden for the summer.",FALSE,3.49776666666667,main_trials,7,main,2
173,7398,20,,none,true,Graduated High School,female,English,The Statue of Liberty is a colossal sculpture on Liberty Island in New York City in the United States.,TRUE,3.49776666666667,main_trials,8,filler,none
173,6533,20,,10,false,Graduated High School,female,English,"Leipzig, it is not threatened by the volcanoes of Germany.",FALSE,3.49776666666667,main_trials,9,main,5
173,3031,20,,none,true,Graduated High School,female,English,The brain needs a constant supply of oxygen to perform basic functions.,TRUE,3.49776666666667,main_trials,10,filler,none
173,8576,20,,none,false,Graduated High School,female,English,France has a king.,FALSE,3.49776666666667,main_trials,11,special,1
173,4852,20,,none,true,Graduated High School,female,English,"Brazil, Canada and Russia are all bigger countries than Switzerland.",TRUE,3.49776666666667,main_trials,12,filler,none
173,6165,20,,6,false,Graduated High School,female,English,The Belgian rainforest doesn’t provide a habitat for many species.,FALSE,3.49776666666667,main_trials,13,main,4
173,1971,20,,none,false,Graduated High School,female,English,Justin Bieber has won 3 gold olympic medals.,FALSE,3.49776666666667,main_trials,14,filler,none
173,5694,20,,none,true,Graduated High School,female,English,The Great Wall is one of the seven wonders of the world.,TRUE,3.49776666666667,main_trials,15,filler,none
173,1752,20,,none,true,Graduated High School,female,English,Canada is a democracy.,TRUE,3.49776666666667,main_trials,16,special,2
173,2246,20,,none,true,Graduated High School,female,English,Mount Everest is the highest mountain on Earth.,TRUE,3.49776666666667,main_trials,17,filler,none
173,1516,20,,none,false,Graduated High School,female,English,Germany has volcanoes.,FALSE,3.49776666666667,main_trials,18,special,5
173,1357,20,,0,false,Graduated High School,female,English,The Pope’s wife is a lawyer.,FALSE,3.49776666666667,main_trials,19,main,3
