submission_id,RT,age,comments,item_version,correct_answer,education,gender,languages,question,response,timeSpent,trial_name,trial_number,trial_type,vignette,condition
192,6024,57,NA,none,TRUE,Graduated College,female,English,The Solar System includes the planet Earth.,TRUE,39.48995,main_trials,1,filler,none,NA
192,4986,57,NA,none,FALSE,Graduated College,female,English,Vatican City is the world's largest country by land area.,FALSE,39.48995,main_trials,2,filler,none,NA
192,13019,57,NA,9,FALSE,Graduated College,female,English,"The Pope’s wife, she did not invite Angela Merkel for dinner.",FALSE,39.48995,main_trials,3,main,3,Condition 9
192,5389,57,NA,none,FALSE,Graduated College,female,English,Big Ben is a very large building in the middle of Paris.,FALSE,39.48995,main_trials,4,filler,none,NA
192,2184,57,NA,none,TRUE,Graduated College,female,English,Harry Potter is a series of fantasy novels written by J. K. Rowling.,TRUE,39.48995,main_trials,5,filler,none,NA
192,14774,57,NA,none,FALSE,Graduated College,female,English,Taj Mahal is a mausoleum on the bank of the river in the city of Rome.,FALSE,39.48995,main_trials,6,filler,none,NA
192,13528,57,NA,0,FALSE,Graduated College,female,English,The volcanoes of Germany dominate the landscape.,TRUE,39.48995,main_trials,7,main,5,Condition 0
192,2292,57,NA,none,FALSE,Graduated College,female,English,James Bond is a spanish dancer from Madrid.,FALSE,39.48995,main_trials,8,filler,none,NA
192,1783,57,NA,6,FALSE,Graduated College,female,English,The King of France isn’t bald.,FALSE,39.48995,main_trials,9,main,1,Condition 6
192,12025,57,NA,none,TRUE,Graduated College,female,English,The Pacific Ocean is a large ocean between Japan and the USA.,TRUE,39.48995,main_trials,10,filler,none,NA
192,39609,57,NA,none,TRUE,Graduated College,female,English,The Pope is currently not married.,TRUE,39.48995,main_trials,11,special,3,NA
192,3605,57,NA,none,FALSE,Graduated College,female,English,Australia has a very large border with Brazil.,FALSE,39.48995,main_trials,12,filler,none,NA
192,2050,57,NA,1,FALSE,Graduated College,female,English,"Canada has an emperor, and he is fond of sushi.",FALSE,39.48995,main_trials,13,main,2,Condition 1
192,1849,57,NA,none,TRUE,Graduated College,female,English,Steve Jobs was an American inventor and co-founder of Apple.,TRUE,39.48995,main_trials,14,filler,none,NA
192,14453,57,NA,none,TRUE,Graduated College,female,English,Planet Earth is part of the galaxy ‘Milky Way’.,TRUE,39.48995,main_trials,15,filler,none,NA
192,1671,57,NA,none,FALSE,Graduated College,female,English,Germany has volcanoes.,TRUE,39.48995,main_trials,16,special,5,NA
192,4133,57,NA,none,TRUE,Graduated College,female,English,"Germany shares borders with France, Belgium and Denmark.",TRUE,39.48995,main_trials,17,filler,none,NA
192,4669,57,NA,none,FALSE,Graduated College,female,English,France has a king.,FALSE,39.48995,main_trials,18,special,1,NA
192,6869,57,NA,10,FALSE,Graduated College,female,English,"Donald Trump, his favorite nature spot is not the Belgian rainforest.",TRUE,39.48995,main_trials,19,main,4,Condition 10
192,3817,57,NA,none,TRUE,Graduated College,female,English,Antarctica is a continent covered almost completely by ice.,TRUE,39.48995,main_trials,20,filler,none,NA
192,2081293,57,NA,none,TRUE,Graduated College,female,English,The Statue of Liberty is a colossal sculpture on Liberty Island in New York City in the United States.,TRUE,39.48995,main_trials,21,filler,none,NA
192,1285,57,NA,none,TRUE,Graduated College,female,English,Canada is a democracy.,TRUE,39.48995,main_trials,22,special,2,NA
192,785,57,NA,none,TRUE,Graduated College,female,English,"English is the main language in Australia, Britain and New Zealand.",TRUE,39.48995,main_trials,23,filler,none,NA
192,544,57,NA,none,FALSE,Graduated College,female,English,Belgium has rainforests.,TRUE,39.48995,main_trials,24,special,4,NA
191,2693,19,NA,none,TRUE,Graduated High School,male,English,Earth has a powerful magnetic field.,TRUE,2.1661,main_trials,1,filler,none,NA
191,3129,19,NA,none,TRUE,Graduated High School,male,English,One of the longest rivers in Europe is the Rhine.,TRUE,2.1661,main_trials,2,filler,none,NA
191,2337,19,NA,0,FALSE,Graduated High School,male,English,The Belgian rainforest provides a habitat for many species.,FALSE,2.1661,main_trials,3,main,4,Condition 0
191,3886,19,NA,none,TRUE,Graduated High School,male,English,The town of Pisa in Italy is famous for its Leaning Tower of Pisa.,TRUE,2.1661,main_trials,4,filler,none,NA
191,3095,19,NA,none,TRUE,Graduated High School,male,English,Hibernation is a deep sleep that helps animals to save energy and survive the winter without eating much.,TRUE,2.1661,main_trials,5,filler,none,NA
191,5897,19,NA,none,TRUE,Graduated High School,male,English,Test of English as a Foreign Language (TOEFL) is a standardized test to measure the English language ability of non-native speakers.,FALSE,2.1661,main_trials,6,filler,none,NA
191,5483,19,NA,10,FALSE,Graduated High School,male,English,"Leipzig, it is not threatened by the volcanoes of Germany.",TRUE,2.1661,main_trials,7,main,5,Condition 10
191,2388,19,NA,none,TRUE,Graduated High School,male,English,Three is a prime number.,TRUE,2.1661,main_trials,8,filler,none,NA
191,2316,19,NA,1,FALSE,Graduated High School,male,English,"Canada has an emperor, and he is fond of sushi.",FALSE,2.1661,main_trials,9,main,2,Condition 1
191,3933,19,NA,none,TRUE,Graduated High School,male,English,FIFA World Cup tournament is an international football competition.,TRUE,2.1661,main_trials,10,filler,none,NA
191,2114,19,NA,none,FALSE,Graduated High School,male,English,Belgium has rainforests.,FALSE,2.1661,main_trials,11,special,4,NA
191,3973,19,NA,none,FALSE,Graduated High School,male,English,Planet Earth is the sixth planet from the Sun.,TRUE,2.1661,main_trials,12,filler,none,NA
191,4756,19,NA,9,FALSE,Graduated High School,male,English,"The Pope’s wife, she did not invite Angela Merkel for dinner.",TRUE,2.1661,main_trials,13,main,3,Condition 9
191,2144,19,NA,none,FALSE,Graduated High School,male,English,James Bond is a spanish dancer from Madrid.,FALSE,2.1661,main_trials,14,filler,none,NA
191,5358,19,NA,none,TRUE,Graduated High School,male,English,"National Geographic is a channel broadcasting documentaries about science, nature, and history.",TRUE,2.1661,main_trials,15,filler,none,NA
191,1851,19,NA,none,FALSE,Graduated High School,male,English,Germany has volcanoes.,FALSE,2.1661,main_trials,16,special,5,NA
191,3307,19,NA,none,TRUE,Graduated High School,male,English,Russia is one of the biggest countries in the world.,TRUE,2.1661,main_trials,17,filler,none,NA
191,3331,19,NA,none,TRUE,Graduated High School,male,English,Canada is a democracy.,TRUE,2.1661,main_trials,18,special,2,NA
191,3773,19,NA,6,FALSE,Graduated High School,male,English,The King of France isn’t bald.,FALSE,2.1661,main_trials,19,main,1,Condition 6
191,7432,19,NA,none,TRUE,Graduated High School,male,English,Square root of 16 is 4.,TRUE,2.1661,main_trials,20,filler,none,NA
191,7944,19,NA,none,TRUE,Graduated High School,male,English,"Michael Jackson was one of the most popular singers, songwriters, and dancers, known also as the ‘King of Pop’.",TRUE,2.1661,main_trials,21,filler,none,NA
191,2937,19,NA,none,TRUE,Graduated High School,male,English,The Pope is currently not married.,TRUE,2.1661,main_trials,22,special,3,NA
191,2716,19,NA,none,FALSE,Graduated High School,male,English,The Eiffel Tower is one of the most popular and frequently visited tourist attractions in Italy.,TRUE,2.1661,main_trials,23,filler,none,NA
191,1801,19,NA,none,FALSE,Graduated High School,male,English,France has a king.,FALSE,2.1661,main_trials,24,special,1,NA
190,5715,31,NA,none,FALSE,Graduated College,female,English,Big Ben is a very large building in the middle of Paris.,FALSE,2.88835,main_trials,1,filler,none,NA
190,6848,31,NA,none,TRUE,Graduated College,female,English,The United Nations Children's Fund (UNICEF) provides humanitarian and developmental assistance to children and mothers in developing countries.,TRUE,2.88835,main_trials,2,filler,none,NA
190,7507,31,NA,10,FALSE,Graduated College,female,English,"Leipzig, it is not threatened by the volcanoes of Germany.",FALSE,2.88835,main_trials,3,main,5,Condition 10
190,6836,31,NA,none,TRUE,Graduated College,female,English,Three is a prime number.,FALSE,2.88835,main_trials,4,filler,none,NA
190,3633,31,NA,none,TRUE,Graduated College,female,English,London is famous for Big Ben and the Queen.,TRUE,2.88835,main_trials,5,filler,none,NA
190,4382,31,NA,none,TRUE,Graduated College,female,English,Dinosaurs became extinct millions of years ago.,TRUE,2.88835,main_trials,6,filler,none,NA
190,4357,31,NA,0,FALSE,Graduated College,female,English,The king of France is bald.,FALSE,2.88835,main_trials,7,main,1,Condition 0
190,2729,31,NA,none,TRUE,Graduated College,female,English,Water boils at 100 degree C.,TRUE,2.88835,main_trials,8,filler,none,NA
190,3331,31,NA,6,FALSE,Graduated College,female,English,The Emperor of Canada isn’t fond of sushi.,FALSE,2.88835,main_trials,9,main,2,Condition 6
190,8340,31,NA,none,TRUE,Graduated College,female,English,The Pacific Ocean is a large ocean between Japan and the USA.,TRUE,2.88835,main_trials,10,filler,none,NA
190,2262,31,NA,none,FALSE,Graduated College,female,English,Germany has volcanoes.,TRUE,2.88835,main_trials,11,special,5,NA
190,5590,31,NA,none,TRUE,Graduated College,female,English,The Republic of South Africa is located in the continent of Africa.,FALSE,2.88835,main_trials,12,filler,none,NA
190,5064,31,NA,9,FALSE,Graduated College,female,English,"The Pope’s wife, she did not invite Angela Merkel for dinner.",TRUE,2.88835,main_trials,13,main,3,Condition 9
190,1701,31,NA,none,TRUE,Graduated College,female,English,Earth has a powerful magnetic field.,TRUE,2.88835,main_trials,14,filler,none,NA
190,2485,31,NA,none,TRUE,Graduated College,female,English,The Earth was once believed to be the centre of the universe.,TRUE,2.88835,main_trials,15,filler,none,NA
190,1722,31,NA,none,FALSE,Graduated College,female,English,France has a king.,TRUE,2.88835,main_trials,16,special,1,NA
190,4234,31,NA,none,TRUE,Graduated College,female,English,The United Nations (UN) is an intergovernmental organization tasked to promote international cooperation and to create and maintain international order.,TRUE,2.88835,main_trials,17,filler,none,NA
190,2968,31,NA,none,TRUE,Graduated College,female,English,Canada is a democracy.,FALSE,2.88835,main_trials,18,special,2,NA
190,2790,31,NA,1,FALSE,Graduated College,female,English,"There is a rainforest in Belgium, and it provides a habitat for many species.",TRUE,2.88835,main_trials,19,main,4,Condition 1
190,3843,31,NA,none,FALSE,Graduated College,female,English,Romeo and Juliet is a tragedy written by Leo Tolstoy.,FALSE,2.88835,main_trials,20,filler,none,NA
190,2343,31,NA,none,TRUE,Graduated College,female,English,Brazil is the largest country in South America.,TRUE,2.88835,main_trials,21,filler,none,NA
190,2536,31,NA,none,TRUE,Graduated College,female,English,The Pope is currently not married.,TRUE,2.88835,main_trials,22,special,3,NA
190,4233,31,NA,none,TRUE,Graduated College,female,English,"The Bermuda Triangle, is a region in the Atlantic Ocean, where a number of aircraft and ships are said to have disappeared under mysterious circumstances.",TRUE,2.88835,main_trials,23,filler,none,NA
190,2000,31,NA,none,FALSE,Graduated College,female,English,Belgium has rainforests.,TRUE,2.88835,main_trials,24,special,4,NA
189,3595,63,I hope I was right most of the time!,none,TRUE,Graduated College,female,English,Charles Darwin was a biologist known for his theory of evolution.,TRUE,5.63046666666667,main_trials,1,filler,none,NA
189,2300,63,I hope I was right most of the time!,none,TRUE,Graduated College,female,English,The capital city of Russia is Moscow.,TRUE,5.63046666666667,main_trials,2,filler,none,NA
189,4298,63,I hope I was right most of the time!,1,FALSE,Graduated College,female,English,"Canada has an emperor, and he is fond of sushi.",FALSE,5.63046666666667,main_trials,3,main,2,Condition 1
189,8036,63,I hope I was right most of the time!,none,TRUE,Graduated College,female,English,The Solar System includes the planet Earth.,TRUE,5.63046666666667,main_trials,4,filler,none,NA
189,2846,63,I hope I was right most of the time!,none,FALSE,Graduated College,female,English,Australia has a very large border with Brazil.,FALSE,5.63046666666667,main_trials,5,filler,none,NA
189,3169,63,I hope I was right most of the time!,none,TRUE,Graduated College,female,English,The Great Wall is one of the seven wonders of the world.,TRUE,5.63046666666667,main_trials,6,filler,none,NA
189,8639,63,I hope I was right most of the time!,9,FALSE,Graduated College,female,English,"The King of France, he did not call Emmanuel Macron last night.",FALSE,5.63046666666667,main_trials,7,main,1,Condition 9
189,5161,63,I hope I was right most of the time!,none,FALSE,Graduated College,female,English,Elvis Presley is one of the most popular musicians in this decade.,FALSE,5.63046666666667,main_trials,8,filler,none,NA
189,3581,63,I hope I was right most of the time!,0,FALSE,Graduated College,female,English,The volcanoes of Germany dominate the landscape.,FALSE,5.63046666666667,main_trials,9,main,5,Condition 0
189,50477,63,I hope I was right most of the time!,none,TRUE,Graduated College,female,English,Currywurst is a popular fast food in Germany.,TRUE,5.63046666666667,main_trials,10,filler,none,NA
189,15751,63,I hope I was right most of the time!,none,TRUE,Graduated College,female,English,Canada is a democracy.,TRUE,5.63046666666667,main_trials,11,special,2,NA
189,3595,63,I hope I was right most of the time!,none,TRUE,Graduated College,female,English,FIFA World Cup tournament is an international football competition.,TRUE,5.63046666666667,main_trials,12,filler,none,NA
189,9473,63,I hope I was right most of the time!,10,FALSE,Graduated College,female,English,"Angela Merkel, she was not invited by the Pope’s wife for dinner.",TRUE,5.63046666666667,main_trials,13,main,3,Condition 10
189,14445,63,I hope I was right most of the time!,none,FALSE,Graduated College,female,English,Switzerland is a member of the European Union.,TRUE,5.63046666666667,main_trials,14,filler,none,NA
189,5715,63,I hope I was right most of the time!,none,TRUE,Graduated College,female,English,The United Nations (UN) is an intergovernmental organization tasked to promote international cooperation and to create and maintain international order.,TRUE,5.63046666666667,main_trials,15,filler,none,NA
189,6655,63,I hope I was right most of the time!,none,FALSE,Graduated College,female,English,France has a king.,FALSE,5.63046666666667,main_trials,16,special,1,NA
189,2820,63,I hope I was right most of the time!,none,TRUE,Graduated College,female,English,Alzheimer’s Disease is a brain disorder that affects memory.,TRUE,5.63046666666667,main_trials,17,filler,none,NA
189,10519,63,I hope I was right most of the time!,none,FALSE,Graduated College,female,English,Germany has volcanoes.,TRUE,5.63046666666667,main_trials,18,special,5,NA
189,6487,63,I hope I was right most of the time!,6,FALSE,Graduated College,female,English,The Belgian rainforest doesn’t provide a habitat for many species.,FALSE,5.63046666666667,main_trials,19,main,4,Condition 6
189,2258,63,I hope I was right most of the time!,none,FALSE,Graduated College,female,English,People love the polar bears in Australia.,FALSE,5.63046666666667,main_trials,20,filler,none,NA
189,4517,63,I hope I was right most of the time!,none,TRUE,Graduated College,female,English,"Germany shares borders with France, Belgium and Denmark.",TRUE,5.63046666666667,main_trials,21,filler,none,NA
189,2937,63,I hope I was right most of the time!,none,TRUE,Graduated College,female,English,The Pope is currently not married.,TRUE,5.63046666666667,main_trials,22,special,3,NA
189,3078,63,I hope I was right most of the time!,none,TRUE,Graduated College,female,English,The Sahara desert in Africa is the largest desert in the world.,TRUE,5.63046666666667,main_trials,23,filler,none,NA
189,21003,63,I hope I was right most of the time!,none,FALSE,Graduated College,female,English,Belgium has rainforests.,FALSE,5.63046666666667,main_trials,24,special,4,NA
188,9442,26,"My level of education is Some Highschool, not finished. So I couldn't input what was correct, so I'm leaving a comment here.",none,TRUE,NA,male,English,The town of Pisa in Italy is famous for its Leaning Tower of Pisa.,FALSE,3.83238333333333,main_trials,1,filler,none,NA
188,7881,26,"My level of education is Some Highschool, not finished. So I couldn't input what was correct, so I'm leaving a comment here.",none,TRUE,NA,male,English,"The statue of Jesus Christ is a famous sightseeing attraction in the city of Rio de Janeiro, Brazil.",TRUE,3.83238333333333,main_trials,2,filler,none,NA
188,3173,26,"My level of education is Some Highschool, not finished. So I couldn't input what was correct, so I'm leaving a comment here.",0,FALSE,NA,male,English,The king of France is bald.,FALSE,3.83238333333333,main_trials,3,main,1,Condition 0
188,10012,26,"My level of education is Some Highschool, not finished. So I couldn't input what was correct, so I'm leaving a comment here.",none,TRUE,NA,male,English,Lower Saxony is a German state situated in northwestern Germany.,FALSE,3.83238333333333,main_trials,4,filler,none,NA
188,2701,26,"My level of education is Some Highschool, not finished. So I couldn't input what was correct, so I'm leaving a comment here.",none,TRUE,NA,male,English,Charles Darwin was a biologist known for his theory of evolution.,TRUE,3.83238333333333,main_trials,5,filler,none,NA
188,8515,26,"My level of education is Some Highschool, not finished. So I couldn't input what was correct, so I'm leaving a comment here.",none,TRUE,NA,male,English,Trees absorb carbon dioxide and release oxygen.,TRUE,3.83238333333333,main_trials,6,filler,none,NA
188,3718,26,"My level of education is Some Highschool, not finished. So I couldn't input what was correct, so I'm leaving a comment here.",9,FALSE,NA,male,English,"The Emperor of Canada, he does not reside in Dresden for the summer.",FALSE,3.83238333333333,main_trials,7,main,2,Condition 9
188,1850,26,"My level of education is Some Highschool, not finished. So I couldn't input what was correct, so I'm leaving a comment here.",none,TRUE,NA,male,English,Venice is a city in Italy.,TRUE,3.83238333333333,main_trials,8,filler,none,NA
188,1915,26,"My level of education is Some Highschool, not finished. So I couldn't input what was correct, so I'm leaving a comment here.",6,FALSE,NA,male,English,The volcanoes of Germany do not dominate the landscape.,FALSE,3.83238333333333,main_trials,9,main,5,Condition 6
188,7325,26,"My level of education is Some Highschool, not finished. So I couldn't input what was correct, so I'm leaving a comment here.",none,TRUE,NA,male,English,Brazil is the largest country in South America.,TRUE,3.83238333333333,main_trials,10,filler,none,NA
188,1409,26,"My level of education is Some Highschool, not finished. So I couldn't input what was correct, so I'm leaving a comment here.",none,FALSE,NA,male,English,France has a king.,FALSE,3.83238333333333,main_trials,11,special,1,NA
188,1900,26,"My level of education is Some Highschool, not finished. So I couldn't input what was correct, so I'm leaving a comment here.",none,FALSE,NA,male,English,In the Sahara you can do a variety of winter sports.,FALSE,3.83238333333333,main_trials,12,filler,none,NA
188,6109,26,"My level of education is Some Highschool, not finished. So I couldn't input what was correct, so I'm leaving a comment here.",10,FALSE,NA,male,English,"Donald Trump, his favorite nature spot is not the Belgian rainforest.",TRUE,3.83238333333333,main_trials,13,main,4,Condition 10
188,4952,26,"My level of education is Some Highschool, not finished. So I couldn't input what was correct, so I'm leaving a comment here.",none,TRUE,NA,male,English,"The Sydney Opera House, built in Australia’s biggest city, is famous for its roof’s architecture.",TRUE,3.83238333333333,main_trials,14,filler,none,NA
188,5480,26,"My level of education is Some Highschool, not finished. So I couldn't input what was correct, so I'm leaving a comment here.",none,TRUE,NA,male,English,Stephen William Hawking was a famous physicist.,TRUE,3.83238333333333,main_trials,15,filler,none,NA
188,1561,26,"My level of education is Some Highschool, not finished. So I couldn't input what was correct, so I'm leaving a comment here.",none,TRUE,NA,male,English,Canada is a democracy.,TRUE,3.83238333333333,main_trials,16,special,2,NA
188,2466,26,"My level of education is Some Highschool, not finished. So I couldn't input what was correct, so I'm leaving a comment here.",none,FALSE,NA,male,English,Romeo and Juliet is a tragedy written by Leo Tolstoy.,FALSE,3.83238333333333,main_trials,17,filler,none,NA
188,3222,26,"My level of education is Some Highschool, not finished. So I couldn't input what was correct, so I'm leaving a comment here.",none,FALSE,NA,male,English,Germany has volcanoes.,FALSE,3.83238333333333,main_trials,18,special,5,NA
188,2868,26,"My level of education is Some Highschool, not finished. So I couldn't input what was correct, so I'm leaving a comment here.",1,FALSE,NA,male,English,"The Pope has a wife, and she is a lawyer.",FALSE,3.83238333333333,main_trials,19,main,3,Condition 1
188,3300,26,"My level of education is Some Highschool, not finished. So I couldn't input what was correct, so I'm leaving a comment here.",none,FALSE,NA,male,English,The country with the lowest population density is China.,FALSE,3.83238333333333,main_trials,20,filler,none,NA
188,2645,26,"My level of education is Some Highschool, not finished. So I couldn't input what was correct, so I'm leaving a comment here.",none,TRUE,NA,male,English,Russia is one of the biggest countries in the world.,TRUE,3.83238333333333,main_trials,21,filler,none,NA
188,1576,26,"My level of education is Some Highschool, not finished. So I couldn't input what was correct, so I'm leaving a comment here.",none,FALSE,NA,male,English,Belgium has rainforests.,FALSE,3.83238333333333,main_trials,22,special,4,NA
188,1557,26,"My level of education is Some Highschool, not finished. So I couldn't input what was correct, so I'm leaving a comment here.",none,TRUE,NA,male,English,Earth has a powerful magnetic field.,TRUE,3.83238333333333,main_trials,23,filler,none,NA
188,2345,26,"My level of education is Some Highschool, not finished. So I couldn't input what was correct, so I'm leaving a comment here.",none,TRUE,NA,male,English,The Pope is currently not married.,TRUE,3.83238333333333,main_trials,24,special,3,NA
187,4363,34,NA,none,TRUE,Graduated High School,female,English,An earthquake is the result of the sudden movement of the earth’s tectonic plates.,TRUE,3.74595,main_trials,1,filler,none,NA
187,7009,34,NA,none,TRUE,Graduated High School,female,English,Paris is a popular city for many tourists.,TRUE,3.74595,main_trials,2,filler,none,NA
187,7095,34,NA,0,FALSE,Graduated High School,female,English,The king of France is bald.,FALSE,3.74595,main_trials,3,main,1,Condition 0
187,11311,34,NA,none,TRUE,Graduated High School,female,English,"The Sydney Opera House, built in Australia’s biggest city, is famous for its roof’s architecture.",TRUE,3.74595,main_trials,4,filler,none,NA
187,4827,34,NA,none,TRUE,Graduated High School,female,English,FIFA World Cup tournament is an international football competition.,TRUE,3.74595,main_trials,5,filler,none,NA
187,5329,34,NA,none,TRUE,Graduated High School,female,English,"Egypt is famous for the pyramids, the pharaohs and the Nile River.",TRUE,3.74595,main_trials,6,filler,none,NA
187,2165,34,NA,1,FALSE,Graduated High School,female,English,"The Pope has a wife, and she is a lawyer.",FALSE,3.74595,main_trials,7,main,3,Condition 1
187,12884,34,NA,none,TRUE,Graduated High School,female,English,"Brazil, Canada and Russia are all bigger countries than Switzerland.",TRUE,3.74595,main_trials,8,filler,none,NA
187,3066,34,NA,6,FALSE,Graduated High School,female,English,The Emperor of Canada isn’t fond of sushi.,FALSE,3.74595,main_trials,9,main,2,Condition 6
187,4860,34,NA,none,TRUE,Graduated High School,female,English,The University of Edinburgh is located in Great Britain.,TRUE,3.74595,main_trials,10,filler,none,NA
187,1727,34,NA,none,FALSE,Graduated High School,female,English,France has a king.,FALSE,3.74595,main_trials,11,special,1,NA
187,1909,34,NA,none,TRUE,Graduated High School,female,English,Leonardo DiCaprio is a famous actor.,TRUE,3.74595,main_trials,12,filler,none,NA
187,8844,34,NA,10,FALSE,Graduated High School,female,English,"Donald Trump, his favorite nature spot is not the Belgian rainforest.",TRUE,3.74595,main_trials,13,main,4,Condition 10
187,3054,34,NA,none,FALSE,Graduated High School,female,English,London is the capital of Asia.,FALSE,3.74595,main_trials,14,filler,none,NA
187,3297,34,NA,none,TRUE,Graduated High School,female,English,Alzheimer’s Disease is a brain disorder that affects memory.,TRUE,3.74595,main_trials,15,filler,none,NA
187,2357,34,NA,none,TRUE,Graduated High School,female,English,The Pope is currently not married.,TRUE,3.74595,main_trials,16,special,3,NA
187,2523,34,NA,none,TRUE,Graduated High School,female,English,Water is of major importance to all living organisms.,TRUE,3.74595,main_trials,17,filler,none,NA
187,4042,34,NA,none,TRUE,Graduated High School,female,English,Canada is a democracy.,TRUE,3.74595,main_trials,18,special,2,NA
187,4994,34,NA,9,FALSE,Graduated High School,female,English,"The volcanoes of Germany, they do not threaten Leipzig.",TRUE,3.74595,main_trials,19,main,5,Condition 9
187,2228,34,NA,none,TRUE,Graduated High School,female,English,London is famous for Big Ben and the Queen.,TRUE,3.74595,main_trials,20,filler,none,NA
187,2072,34,NA,none,FALSE,Graduated High School,female,English,Facebook is the name of a famous musician.,FALSE,3.74595,main_trials,21,filler,none,NA
187,4731,34,NA,none,FALSE,Graduated High School,female,English,Belgium has rainforests.,FALSE,3.74595,main_trials,22,special,4,NA
187,2814,34,NA,none,FALSE,Graduated High School,female,English,The Leaning Tower of Pisa is one of Germany’s major tourist attractions.,FALSE,3.74595,main_trials,23,filler,none,NA
187,11574,34,NA,none,FALSE,Graduated High School,female,English,Germany has volcanoes.,FALSE,3.74595,main_trials,24,special,5,NA
186,22606,29,NA,none,TRUE,Graduated High School,male,English,There are more than 2 countries in the United Nations.,FALSE,3.12791666666667,main_trials,1,filler,none,NA
186,3548,29,NA,none,TRUE,Graduated High School,male,English,In the German language every noun has a gender.,TRUE,3.12791666666667,main_trials,2,filler,none,NA
186,2272,29,NA,6,FALSE,Graduated High School,male,English,The Emperor of Canada isn’t fond of sushi.,TRUE,3.12791666666667,main_trials,3,main,2,Condition 6
186,1872,29,NA,none,TRUE,Graduated High School,male,English,The University of Edinburgh is located in Great Britain.,TRUE,3.12791666666667,main_trials,4,filler,none,NA
186,1721,29,NA,none,TRUE,Graduated High School,male,English,The Great Wall is one of the seven wonders of the world.,TRUE,3.12791666666667,main_trials,5,filler,none,NA
186,75954,29,NA,none,TRUE,Graduated High School,male,English,Monkeys like to eat bananas.,TRUE,3.12791666666667,main_trials,6,filler,none,NA
186,2175,29,NA,10,FALSE,Graduated High School,male,English,"Angela Merkel, she was not invited by the Pope’s wife for dinner.",FALSE,3.12791666666667,main_trials,7,main,3,Condition 10
186,1923,29,NA,none,TRUE,Graduated High School,male,English,An earthquake is the result of the sudden movement of the earth’s tectonic plates.,TRUE,3.12791666666667,main_trials,8,filler,none,NA
186,2173,29,NA,1,FALSE,Graduated High School,male,English,"France has a king, and he is bald.",FALSE,3.12791666666667,main_trials,9,main,1,Condition 1
186,1870,29,NA,none,FALSE,Graduated High School,male,English,The Berlin Wall was destroyed 10 years ago by Sweden.,TRUE,3.12791666666667,main_trials,10,filler,none,NA
186,3383,29,NA,none,TRUE,Graduated High School,male,English,Canada is a democracy.,TRUE,3.12791666666667,main_trials,11,special,2,NA
186,3405,29,NA,none,FALSE,Graduated High School,male,English,In the Sahara you can do a variety of winter sports.,FALSE,3.12791666666667,main_trials,12,filler,none,NA
186,1810,29,NA,9,FALSE,Graduated High School,male,English,"The volcanoes of Germany, they do not threaten Leipzig.",FALSE,3.12791666666667,main_trials,13,main,5,Condition 9
186,1739,29,NA,none,TRUE,Graduated High School,male,English,Paris is a popular city for many tourists.,TRUE,3.12791666666667,main_trials,14,filler,none,NA
186,2477,29,NA,none,FALSE,Graduated High School,male,English,Romeo and Juliet is a tragedy written by Leo Tolstoy.,TRUE,3.12791666666667,main_trials,15,filler,none,NA
186,1649,29,NA,none,TRUE,Graduated High School,male,English,The Pope is currently not married.,TRUE,3.12791666666667,main_trials,16,special,3,NA
186,1924,29,NA,none,TRUE,Graduated High School,male,English,The Statue of Liberty is a colossal sculpture on Liberty Island in New York City in the United States.,TRUE,3.12791666666667,main_trials,17,filler,none,NA
186,2253,29,NA,none,FALSE,Graduated High School,male,English,France has a king.,FALSE,3.12791666666667,main_trials,18,special,1,NA
186,3050,29,NA,0,FALSE,Graduated High School,male,English,The Belgian rainforest provides a habitat for many species.,TRUE,3.12791666666667,main_trials,19,main,4,Condition 0
186,2279,29,NA,none,TRUE,Graduated High School,male,English,"The Sydney Opera House, built in Australia’s biggest city, is famous for its roof’s architecture.",TRUE,3.12791666666667,main_trials,20,filler,none,NA
186,1830,29,NA,none,FALSE,Graduated High School,male,English,The Queen of England is a 20 year old man.,FALSE,3.12791666666667,main_trials,21,filler,none,NA
186,2186,29,NA,none,FALSE,Graduated High School,male,English,Germany has volcanoes.,FALSE,3.12791666666667,main_trials,22,special,5,NA
186,2721,29,NA,none,TRUE,Graduated High School,male,English,One of the longest rivers in Europe is the Rhine.,FALSE,3.12791666666667,main_trials,23,filler,none,NA
186,2330,29,NA,none,FALSE,Graduated High School,male,English,Belgium has rainforests.,TRUE,3.12791666666667,main_trials,24,special,4,NA
185,8335,26,NA,none,TRUE,NA,male,english,The Sun is in the centre of the Solar System.,TRUE,2.76205,main_trials,1,filler,none,NA
185,5960,26,NA,none,TRUE,NA,male,english,The brain is made up of very special cells called neurons.,TRUE,2.76205,main_trials,2,filler,none,NA
185,6183,26,NA,6,FALSE,NA,male,english,The volcanoes of Germany do not dominate the landscape.,TRUE,2.76205,main_trials,3,main,5,Condition 6
185,5519,26,NA,none,TRUE,NA,male,english,"The Sydney Opera House, built in Australia’s biggest city, is famous for its roof’s architecture.",TRUE,2.76205,main_trials,4,filler,none,NA
185,6704,26,NA,none,TRUE,NA,male,english,"Agatha Christie was an English writer, known for her detective novels, particularly those revolving around her fictional detectives Hercule Poirot and Miss Marple.",FALSE,2.76205,main_trials,5,filler,none,NA
185,4840,26,NA,none,TRUE,NA,male,english,Water boils at 100 degree C.,FALSE,2.76205,main_trials,6,filler,none,NA
185,4376,26,NA,0,FALSE,NA,male,english,The Emperor of Canada is fond of sushi.,FALSE,2.76205,main_trials,7,main,2,Condition 0
185,3943,26,NA,none,FALSE,NA,male,english,Big Ben is a very large building in the middle of Paris.,FALSE,2.76205,main_trials,8,filler,none,NA
185,11623,26,NA,10,FALSE,NA,male,english,"Angela Merkel, she was not invited by the Pope’s wife for dinner.",FALSE,2.76205,main_trials,9,main,3,Condition 10
185,2768,26,NA,none,FALSE,NA,male,english,The Queen of England is a 20 year old man.,FALSE,2.76205,main_trials,10,filler,none,NA
185,3327,26,NA,none,FALSE,NA,male,english,Germany has volcanoes.,TRUE,2.76205,main_trials,11,special,5,NA
185,1488,26,NA,none,TRUE,NA,male,english,The capital city of Russia is Moscow.,TRUE,2.76205,main_trials,12,filler,none,NA
185,6623,26,NA,1,FALSE,NA,male,english,"There is a rainforest in Belgium, and it provides a habitat for many species.",TRUE,2.76205,main_trials,13,main,4,Condition 1
185,3974,26,NA,none,FALSE,NA,male,english,The desert of Sweden is the hottest desert in the world.,FALSE,2.76205,main_trials,14,filler,none,NA
185,4112,26,NA,none,TRUE,NA,male,english,The Earth was once believed to be the centre of the universe.,TRUE,2.76205,main_trials,15,filler,none,NA
185,2015,26,NA,none,TRUE,NA,male,english,Canada is a democracy.,TRUE,2.76205,main_trials,16,special,2,NA
185,3311,26,NA,none,TRUE,NA,male,english,Canada is a country located in North America.,TRUE,2.76205,main_trials,17,filler,none,NA
185,2392,26,NA,none,TRUE,NA,male,english,The Pope is currently not married.,TRUE,2.76205,main_trials,18,special,3,NA
185,4384,26,NA,9,FALSE,NA,male,english,"The King of France, he did not call Emmanuel Macron last night.",FALSE,2.76205,main_trials,19,main,1,Condition 9
185,1623,26,NA,none,FALSE,NA,male,english,James Bond is a spanish dancer from Madrid.,FALSE,2.76205,main_trials,20,filler,none,NA
185,2144,26,NA,none,TRUE,NA,male,english,Earth has a powerful magnetic field.,TRUE,2.76205,main_trials,21,filler,none,NA
185,2328,26,NA,none,FALSE,NA,male,english,Belgium has rainforests.,FALSE,2.76205,main_trials,22,special,4,NA
185,3375,26,NA,none,FALSE,NA,male,english,Australia has a very large border with Brazil.,FALSE,2.76205,main_trials,23,filler,none,NA
185,4095,26,NA,none,FALSE,NA,male,english,France has a king.,FALSE,2.76205,main_trials,24,special,1,NA
184,3708,43,NA,none,TRUE,Higher Degree,female,English,Water boils at 100 degree C.,TRUE,2.47605,main_trials,1,filler,none,NA
184,4215,43,NA,none,TRUE,Higher Degree,female,English,FIFA World Cup tournament is an international football competition.,FALSE,2.47605,main_trials,2,filler,none,NA
184,2084,43,NA,1,FALSE,Higher Degree,female,English,"There are volcanoes in Germany, and they dominate the landscape.",FALSE,2.47605,main_trials,3,main,5,Condition 1
184,2300,43,NA,none,FALSE,Higher Degree,female,English,In the Sahara you can do a variety of winter sports.,FALSE,2.47605,main_trials,4,filler,none,NA
184,3480,43,NA,none,TRUE,Higher Degree,female,English,Johnny Depp is an American actor who took part in the ‘Pirates of the Caribbean’ movies.,TRUE,2.47605,main_trials,5,filler,none,NA
184,2409,43,NA,none,TRUE,Higher Degree,female,English,Steve Jobs was an American inventor and co-founder of Apple.,TRUE,2.47605,main_trials,6,filler,none,NA
184,4865,43,NA,9,FALSE,Higher Degree,female,English,"The Pope’s wife, she did not invite Angela Merkel for dinner.",FALSE,2.47605,main_trials,7,main,3,Condition 9
184,2919,43,NA,none,TRUE,Higher Degree,female,English,One of the longest rivers in Europe is the Rhine.,TRUE,2.47605,main_trials,8,filler,none,NA
184,2933,43,NA,0,FALSE,Higher Degree,female,English,The king of France is bald.,FALSE,2.47605,main_trials,9,main,1,Condition 0
184,2631,43,NA,none,FALSE,Higher Degree,female,English,London is the capital of Asia.,FALSE,2.47605,main_trials,10,filler,none,NA
184,1246,43,NA,none,FALSE,Higher Degree,female,English,Germany has volcanoes.,FALSE,2.47605,main_trials,11,special,5,NA
184,2113,43,NA,none,TRUE,Higher Degree,female,English,Harry Potter is a series of fantasy novels written by J. K. Rowling.,TRUE,2.47605,main_trials,12,filler,none,NA
184,1885,43,NA,6,FALSE,Higher Degree,female,English,The Emperor of Canada isn’t fond of sushi.,FALSE,2.47605,main_trials,13,main,2,Condition 6
184,9912,43,NA,none,FALSE,Higher Degree,female,English,There is always a lot of snow during summer in Sydney.,FALSE,2.47605,main_trials,14,filler,none,NA
184,5572,43,NA,none,TRUE,Higher Degree,female,English,"English is the main language in Australia, Britain and New Zealand.",TRUE,2.47605,main_trials,15,filler,none,NA
184,2867,43,NA,none,TRUE,Higher Degree,female,English,The Pope is currently not married.,TRUE,2.47605,main_trials,16,special,3,NA
184,3632,43,NA,none,TRUE,Higher Degree,female,English,The heart is an organ in your body that pumps blood to other organs.,TRUE,2.47605,main_trials,17,filler,none,NA
184,1989,43,NA,none,FALSE,Higher Degree,female,English,France has a king.,FALSE,2.47605,main_trials,18,special,1,NA
184,7400,43,NA,10,FALSE,Higher Degree,female,English,"Donald Trump, his favorite nature spot is not the Belgian rainforest.",TRUE,2.47605,main_trials,19,main,4,Condition 10
184,2761,43,NA,none,TRUE,Higher Degree,female,English,Venice is a city in Italy.,TRUE,2.47605,main_trials,20,filler,none,NA
184,1990,43,NA,none,FALSE,Higher Degree,female,English,India is the smallest country in Europe.,FALSE,2.47605,main_trials,21,filler,none,NA
184,4131,43,NA,none,TRUE,Higher Degree,female,English,Canada is a democracy.,TRUE,2.47605,main_trials,22,special,2,NA
184,2523,43,NA,none,TRUE,Higher Degree,female,English,Paris is a popular city for many tourists.,TRUE,2.47605,main_trials,23,filler,none,NA
184,1620,43,NA,none,FALSE,Higher Degree,female,English,Belgium has rainforests.,FALSE,2.47605,main_trials,24,special,4,NA
183,11319,34,NA,none,TRUE,Graduated High School,female,English,Venice is a city in Italy.,TRUE,6.50131666666667,main_trials,1,filler,none,NA
183,6119,34,NA,none,TRUE,Graduated High School,female,English,Hibernation is a deep sleep that helps animals to save energy and survive the winter without eating much.,TRUE,6.50131666666667,main_trials,2,filler,none,NA
183,23868,34,NA,9,FALSE,Graduated High School,female,English,"The volcanoes of Germany, they do not threaten Leipzig.",TRUE,6.50131666666667,main_trials,3,main,5,Condition 9
183,16286,34,NA,none,TRUE,Graduated High School,female,English,Antarctica is the biggest continent on Earth.,FALSE,6.50131666666667,main_trials,4,filler,none,NA
183,23633,34,NA,none,FALSE,Graduated High School,female,English,Vatican City is the world's largest country by land area.,FALSE,6.50131666666667,main_trials,5,filler,none,NA
183,1933,34,NA,none,FALSE,Graduated High School,female,English,Albert Einstein was a very famous Chinese scientist.,FALSE,6.50131666666667,main_trials,6,filler,none,NA
183,15773,34,NA,6,FALSE,Graduated High School,female,English,The Emperor of Canada isn’t fond of sushi.,TRUE,6.50131666666667,main_trials,7,main,2,Condition 6
183,11144,34,NA,none,FALSE,Graduated High School,female,English,The desert of Sweden is the hottest desert in the world.,FALSE,6.50131666666667,main_trials,8,filler,none,NA
183,30915,34,NA,0,FALSE,Graduated High School,female,English,The Belgian rainforest provides a habitat for many species.,TRUE,6.50131666666667,main_trials,9,main,4,Condition 0
183,7437,34,NA,none,TRUE,Graduated High School,female,English,Alzheimer’s Disease is a brain disorder that affects memory.,TRUE,6.50131666666667,main_trials,10,filler,none,NA
183,10404,34,NA,none,FALSE,Graduated High School,female,English,Germany has volcanoes.,TRUE,6.50131666666667,main_trials,11,special,5,NA
183,3946,34,NA,none,FALSE,Graduated High School,female,English,China is the smallest country in South America.,FALSE,6.50131666666667,main_trials,12,filler,none,NA
183,32125,34,NA,1,FALSE,Graduated High School,female,English,"France has a king, and he is bald.",TRUE,6.50131666666667,main_trials,13,main,1,Condition 1
183,7302,34,NA,none,TRUE,Graduated High School,female,English,Earth is the third planet from the sun.,TRUE,6.50131666666667,main_trials,14,filler,none,NA
183,25141,34,NA,none,FALSE,Graduated High School,female,English,Manchester United is a French football team based in Paris.,FALSE,6.50131666666667,main_trials,15,filler,none,NA
183,12926,34,NA,none,TRUE,Graduated High School,female,English,Canada is a democracy.,TRUE,6.50131666666667,main_trials,16,special,2,NA
183,3799,34,NA,none,TRUE,Graduated High School,female,English,Earth has a powerful magnetic field.,TRUE,6.50131666666667,main_trials,17,filler,none,NA
183,2132,34,NA,none,FALSE,Graduated High School,female,English,Belgium has rainforests.,TRUE,6.50131666666667,main_trials,18,special,4,NA
183,22109,34,NA,10,FALSE,Graduated High School,female,English,"Angela Merkel, she was not invited by the Pope’s wife for dinner.",FALSE,6.50131666666667,main_trials,19,main,3,Condition 10
183,10910,34,NA,none,TRUE,Graduated High School,female,English,Currywurst is a popular fast food in Germany.,TRUE,6.50131666666667,main_trials,20,filler,none,NA
183,2722,34,NA,none,TRUE,Graduated High School,female,English,"Michael Jackson was one of the most popular singers, songwriters, and dancers, known also as the ‘King of Pop’.",TRUE,6.50131666666667,main_trials,21,filler,none,NA
183,1426,34,NA,none,FALSE,Graduated High School,female,English,France has a king.,TRUE,6.50131666666667,main_trials,22,special,1,NA
183,13625,34,NA,none,TRUE,Graduated High School,female,English,Brazil is the largest country in South America.,TRUE,6.50131666666667,main_trials,23,filler,none,NA
183,24228,34,NA,none,TRUE,Graduated High School,female,English,The Pope is currently not married.,TRUE,6.50131666666667,main_trials,24,special,3,NA
182,5322,29,"It was interesting, and made re-read questions to make sure they weren't tricks. I hope I got them all correct.",none,FALSE,Graduated High School,female,English,Manchester United is a French football team based in Paris.,FALSE,5.03325,main_trials,1,filler,none,NA
182,4883,29,"It was interesting, and made re-read questions to make sure they weren't tricks. I hope I got them all correct.",none,TRUE,Graduated High School,female,English,The Brandenburg Gate is a monument in Berlin.,TRUE,5.03325,main_trials,2,filler,none,NA
182,20565,29,"It was interesting, and made re-read questions to make sure they weren't tricks. I hope I got them all correct.",6,FALSE,Graduated High School,female,English,The Pope’s wife isn’t a lawyer.,TRUE,5.03325,main_trials,3,main,3,Condition 6
182,2644,29,"It was interesting, and made re-read questions to make sure they weren't tricks. I hope I got them all correct.",none,FALSE,Graduated High School,female,English,Big Ben is a very large building in the middle of Paris.,FALSE,5.03325,main_trials,4,filler,none,NA
182,4990,29,"It was interesting, and made re-read questions to make sure they weren't tricks. I hope I got them all correct.",none,FALSE,Graduated High School,female,English,The University of Oxford is a business that sells mobile phones.,FALSE,5.03325,main_trials,5,filler,none,NA
182,5134,29,"It was interesting, and made re-read questions to make sure they weren't tricks. I hope I got them all correct.",none,TRUE,Graduated High School,female,English,"National Geographic is a channel broadcasting documentaries about science, nature, and history.",TRUE,5.03325,main_trials,6,filler,none,NA
182,3130,29,"It was interesting, and made re-read questions to make sure they weren't tricks. I hope I got them all correct.",1,FALSE,Graduated High School,female,English,"Canada has an emperor, and he is fond of sushi.",FALSE,5.03325,main_trials,7,main,2,Condition 1
182,5795,29,"It was interesting, and made re-read questions to make sure they weren't tricks. I hope I got them all correct.",none,FALSE,Graduated High School,female,English,The Berlin Wall was destroyed 10 years ago by Sweden.,FALSE,5.03325,main_trials,8,filler,none,NA
182,11786,29,"It was interesting, and made re-read questions to make sure they weren't tricks. I hope I got them all correct.",9,FALSE,Graduated High School,female,English,"The Belgian rainforest, it is not the favorite nature spot of Donald Trump.",TRUE,5.03325,main_trials,9,main,4,Condition 9
182,3881,29,"It was interesting, and made re-read questions to make sure they weren't tricks. I hope I got them all correct.",none,TRUE,Graduated High School,female,English,Antarctica is a continent covered almost completely by ice.,TRUE,5.03325,main_trials,10,filler,none,NA
182,2068,29,"It was interesting, and made re-read questions to make sure they weren't tricks. I hope I got them all correct.",none,TRUE,Graduated High School,female,English,The Pope is currently not married.,TRUE,5.03325,main_trials,11,special,3,NA
182,2582,29,"It was interesting, and made re-read questions to make sure they weren't tricks. I hope I got them all correct.",none,FALSE,Graduated High School,female,English,China is the smallest country in South America.,FALSE,5.03325,main_trials,12,filler,none,NA
182,6979,29,"It was interesting, and made re-read questions to make sure they weren't tricks. I hope I got them all correct.",10,FALSE,Graduated High School,female,English,"Leipzig, it is not threatened by the volcanoes of Germany.",TRUE,5.03325,main_trials,13,main,5,Condition 10
182,2611,29,"It was interesting, and made re-read questions to make sure they weren't tricks. I hope I got them all correct.",none,FALSE,Graduated High School,female,English,Albert Einstein was a very famous Chinese scientist.,FALSE,5.03325,main_trials,14,filler,none,NA
182,4160,29,"It was interesting, and made re-read questions to make sure they weren't tricks. I hope I got them all correct.",none,TRUE,Graduated High School,female,English,Brazil is the largest country in South America.,TRUE,5.03325,main_trials,15,filler,none,NA
182,2435,29,"It was interesting, and made re-read questions to make sure they weren't tricks. I hope I got them all correct.",none,TRUE,Graduated High School,female,English,Canada is a democracy.,TRUE,5.03325,main_trials,16,special,2,NA
182,5128,29,"It was interesting, and made re-read questions to make sure they weren't tricks. I hope I got them all correct.",none,TRUE,Graduated High School,female,English,"Agatha Christie was an English writer, known for her detective novels, particularly those revolving around her fictional detectives Hercule Poirot and Miss Marple.",TRUE,5.03325,main_trials,17,filler,none,NA
182,9797,29,"It was interesting, and made re-read questions to make sure they weren't tricks. I hope I got them all correct.",none,FALSE,Graduated High School,female,English,Belgium has rainforests.,TRUE,5.03325,main_trials,18,special,4,NA
182,44393,29,"It was interesting, and made re-read questions to make sure they weren't tricks. I hope I got them all correct.",0,FALSE,Graduated High School,female,English,The king of France is bald.,FALSE,5.03325,main_trials,19,main,1,Condition 0
182,3208,29,"It was interesting, and made re-read questions to make sure they weren't tricks. I hope I got them all correct.",none,FALSE,Graduated High School,female,English,The Queen of England is a 20 year old man.,FALSE,5.03325,main_trials,20,filler,none,NA
182,2621,29,"It was interesting, and made re-read questions to make sure they weren't tricks. I hope I got them all correct.",none,TRUE,Graduated High School,female,English,Water is of major importance to all living organisms.,TRUE,5.03325,main_trials,21,filler,none,NA
182,1900,29,"It was interesting, and made re-read questions to make sure they weren't tricks. I hope I got them all correct.",none,FALSE,Graduated High School,female,English,Germany has volcanoes.,FALSE,5.03325,main_trials,22,special,5,NA
182,15493,29,"It was interesting, and made re-read questions to make sure they weren't tricks. I hope I got them all correct.",none,TRUE,Graduated High School,female,English,The Grand Canyon in Arizona (USA) is the largest canyon in the world.,FALSE,5.03325,main_trials,23,filler,none,NA
182,2089,29,"It was interesting, and made re-read questions to make sure they weren't tricks. I hope I got them all correct.",none,FALSE,Graduated High School,female,English,France has a king.,FALSE,5.03325,main_trials,24,special,1,NA
181,7067,24,Worked well,none,TRUE,Graduated College,male,English,Water boils at 100 degree C.,FALSE,5.58116666666667,main_trials,1,filler,none,NA
181,8616,24,Worked well,none,TRUE,Graduated College,male,English,The Pacific Ocean is a large ocean between Japan and the USA.,FALSE,5.58116666666667,main_trials,2,filler,none,NA
181,8320,24,Worked well,9,FALSE,Graduated College,male,English,"The volcanoes of Germany, they do not threaten Leipzig.",FALSE,5.58116666666667,main_trials,3,main,5,Condition 9
181,5347,24,Worked well,none,TRUE,Graduated College,male,English,The brain needs a constant supply of oxygen to perform basic functions.,TRUE,5.58116666666667,main_trials,4,filler,none,NA
181,12085,24,Worked well,none,FALSE,Graduated College,male,English,Africa is the continent with the highest population density.,FALSE,5.58116666666667,main_trials,5,filler,none,NA
181,5655,24,Worked well,none,TRUE,Graduated College,male,English,The Sahara desert in Africa is the largest desert in the world.,TRUE,5.58116666666667,main_trials,6,filler,none,NA
181,7105,24,Worked well,6,FALSE,Graduated College,male,English,The Pope’s wife isn’t a lawyer.,TRUE,5.58116666666667,main_trials,7,main,3,Condition 6
181,5780,24,Worked well,none,TRUE,Graduated College,male,English,Canada is a country located in North America.,TRUE,5.58116666666667,main_trials,8,filler,none,NA
181,6183,24,Worked well,1,FALSE,Graduated College,male,English,"Canada has an emperor, and he is fond of sushi.",FALSE,5.58116666666667,main_trials,9,main,2,Condition 1
181,5371,24,Worked well,none,FALSE,Graduated College,male,English,People love the polar bears in Australia.,FALSE,5.58116666666667,main_trials,10,filler,none,NA
181,4204,24,Worked well,none,FALSE,Graduated College,male,English,Germany has volcanoes.,FALSE,5.58116666666667,main_trials,11,special,5,NA
181,9651,24,Worked well,none,FALSE,Graduated College,male,English,The country with the lowest population density is China.,FALSE,5.58116666666667,main_trials,12,filler,none,NA
181,6775,24,Worked well,10,FALSE,Graduated College,male,English,"Donald Trump, his favorite nature spot is not the Belgian rainforest.",FALSE,5.58116666666667,main_trials,13,main,4,Condition 10
181,4709,24,Worked well,none,FALSE,Graduated College,male,English,In the Sahara you can do a variety of winter sports.,FALSE,5.58116666666667,main_trials,14,filler,none,NA
181,10277,24,Worked well,none,FALSE,Graduated College,male,English,The Eiffel Tower is one of the most popular and frequently visited tourist attractions in Italy.,FALSE,5.58116666666667,main_trials,15,filler,none,NA
181,3628,24,Worked well,none,TRUE,Graduated College,male,English,The Pope is currently not married.,FALSE,5.58116666666667,main_trials,16,special,3,NA
181,7352,24,Worked well,none,TRUE,Graduated College,male,English,An earthquake is the result of the sudden movement of the earth’s tectonic plates.,TRUE,5.58116666666667,main_trials,17,filler,none,NA
181,3782,24,Worked well,none,TRUE,Graduated College,male,English,Canada is a democracy.,FALSE,5.58116666666667,main_trials,18,special,2,NA
181,4376,24,Worked well,0,FALSE,Graduated College,male,English,The king of France is bald.,FALSE,5.58116666666667,main_trials,19,main,1,Condition 0
181,4857,24,Worked well,none,FALSE,Graduated College,male,English,The Queen of England is a 20 year old man.,FALSE,5.58116666666667,main_trials,20,filler,none,NA
181,7231,24,Worked well,none,TRUE,Graduated College,male,English,Charles Darwin was a biologist known for his theory of evolution.,FALSE,5.58116666666667,main_trials,21,filler,none,NA
181,2788,24,Worked well,none,FALSE,Graduated College,male,English,Belgium has rainforests.,FALSE,5.58116666666667,main_trials,22,special,4,NA
181,4745,24,Worked well,none,TRUE,Graduated College,male,English,Planet Earth is part of the galaxy ‘Milky Way’.,FALSE,5.58116666666667,main_trials,23,filler,none,NA
181,2299,24,Worked well,none,FALSE,Graduated College,male,English,France has a king.,FALSE,5.58116666666667,main_trials,24,special,1,NA
180,6922,48,"A surprisingly tricky study! Thoroughly enjoyed completing it, despite several red herrings!!",none,TRUE,Higher Degree,female,English,The Great Pyramid of Giza is one of the Seven Wonders of the Ancient World and the only one of these ancient world wonders which still exists.,FALSE,4.68158333333333,main_trials,1,filler,none,NA
180,4577,48,"A surprisingly tricky study! Thoroughly enjoyed completing it, despite several red herrings!!",none,FALSE,Higher Degree,female,English,Australia has a very large border with Brazil.,FALSE,4.68158333333333,main_trials,2,filler,none,NA
180,4825,48,"A surprisingly tricky study! Thoroughly enjoyed completing it, despite several red herrings!!",1,FALSE,Higher Degree,female,English,"France has a king, and he is bald.",FALSE,4.68158333333333,main_trials,3,main,1,Condition 1
180,3165,48,"A surprisingly tricky study! Thoroughly enjoyed completing it, despite several red herrings!!",none,TRUE,Higher Degree,female,English,The Great Wall is one of the seven wonders of the world.,TRUE,4.68158333333333,main_trials,4,filler,none,NA
180,2767,48,"A surprisingly tricky study! Thoroughly enjoyed completing it, despite several red herrings!!",none,FALSE,Higher Degree,female,English,James Bond is a spanish dancer from Madrid.,FALSE,4.68158333333333,main_trials,5,filler,none,NA
180,4073,48,"A surprisingly tricky study! Thoroughly enjoyed completing it, despite several red herrings!!",none,TRUE,Higher Degree,female,English,Leonardo DiCaprio is a famous actor.,TRUE,4.68158333333333,main_trials,6,filler,none,NA
180,2690,48,"A surprisingly tricky study! Thoroughly enjoyed completing it, despite several red herrings!!",6,FALSE,Higher Degree,female,English,The Pope’s wife isn’t a lawyer.,FALSE,4.68158333333333,main_trials,7,main,3,Condition 6
180,4572,48,"A surprisingly tricky study! Thoroughly enjoyed completing it, despite several red herrings!!",none,TRUE,Higher Degree,female,English,Johnny Depp is an American actor who took part in the ‘Pirates of the Caribbean’ movies.,TRUE,4.68158333333333,main_trials,8,filler,none,NA
180,6553,48,"A surprisingly tricky study! Thoroughly enjoyed completing it, despite several red herrings!!",9,FALSE,Higher Degree,female,English,"The Emperor of Canada, he does not reside in Dresden for the summer.",FALSE,4.68158333333333,main_trials,9,main,2,Condition 9
180,2791,48,"A surprisingly tricky study! Thoroughly enjoyed completing it, despite several red herrings!!",none,TRUE,Higher Degree,female,English,Monkeys like to eat bananas.,TRUE,4.68158333333333,main_trials,10,filler,none,NA
180,2425,48,"A surprisingly tricky study! Thoroughly enjoyed completing it, despite several red herrings!!",none,FALSE,Higher Degree,female,English,France has a king.,FALSE,4.68158333333333,main_trials,11,special,1,NA
180,4635,48,"A surprisingly tricky study! Thoroughly enjoyed completing it, despite several red herrings!!",none,FALSE,Higher Degree,female,English,The Eiffel Tower is one of the most popular and frequently visited tourist attractions in Italy.,FALSE,4.68158333333333,main_trials,12,filler,none,NA
180,6012,48,"A surprisingly tricky study! Thoroughly enjoyed completing it, despite several red herrings!!",10,FALSE,Higher Degree,female,English,"Leipzig, it is not threatened by the volcanoes of Germany.",TRUE,4.68158333333333,main_trials,13,main,5,Condition 10
180,5336,48,"A surprisingly tricky study! Thoroughly enjoyed completing it, despite several red herrings!!",none,TRUE,Higher Degree,female,English,The Grand Canyon in Arizona (USA) is the largest canyon in the world.,TRUE,4.68158333333333,main_trials,14,filler,none,NA
180,2962,48,"A surprisingly tricky study! Thoroughly enjoyed completing it, despite several red herrings!!",none,TRUE,Higher Degree,female,English,Email is a method of exchanging messages.,TRUE,4.68158333333333,main_trials,15,filler,none,NA
180,4291,48,"A surprisingly tricky study! Thoroughly enjoyed completing it, despite several red herrings!!",none,TRUE,Higher Degree,female,English,The Pope is currently not married.,TRUE,4.68158333333333,main_trials,16,special,3,NA
180,3668,48,"A surprisingly tricky study! Thoroughly enjoyed completing it, despite several red herrings!!",none,FALSE,Higher Degree,female,English,People love the polar bears in Australia.,FALSE,4.68158333333333,main_trials,17,filler,none,NA
180,2529,48,"A surprisingly tricky study! Thoroughly enjoyed completing it, despite several red herrings!!",none,TRUE,Higher Degree,female,English,Canada is a democracy.,TRUE,4.68158333333333,main_trials,18,special,2,NA
180,4076,48,"A surprisingly tricky study! Thoroughly enjoyed completing it, despite several red herrings!!",0,FALSE,Higher Degree,female,English,The Belgian rainforest provides a habitat for many species.,TRUE,4.68158333333333,main_trials,19,main,4,Condition 0
180,3886,48,"A surprisingly tricky study! Thoroughly enjoyed completing it, despite several red herrings!!",none,TRUE,Higher Degree,female,English,Mount Everest is the highest mountain on Earth.,FALSE,4.68158333333333,main_trials,20,filler,none,NA
180,3032,48,"A surprisingly tricky study! Thoroughly enjoyed completing it, despite several red herrings!!",none,FALSE,Higher Degree,female,English,China is the smallest country in South America.,FALSE,4.68158333333333,main_trials,21,filler,none,NA
180,5758,48,"A surprisingly tricky study! Thoroughly enjoyed completing it, despite several red herrings!!",none,FALSE,Higher Degree,female,English,Germany has volcanoes.,FALSE,4.68158333333333,main_trials,22,special,5,NA
180,2977,48,"A surprisingly tricky study! Thoroughly enjoyed completing it, despite several red herrings!!",none,TRUE,Higher Degree,female,English,Antarctica is the biggest continent on Earth.,TRUE,4.68158333333333,main_trials,23,filler,none,NA
180,4093,48,"A surprisingly tricky study! Thoroughly enjoyed completing it, despite several red herrings!!",none,FALSE,Higher Degree,female,English,Belgium has rainforests.,FALSE,4.68158333333333,main_trials,24,special,4,NA
179,2602,32,NA,none,FALSE,Graduated College,female,English,Manchester United is a French football team based in Paris.,FALSE,1.46096666666667,main_trials,1,filler,none,NA
179,2880,32,NA,none,TRUE,Graduated College,female,English,The University of Edinburgh is located in Great Britain.,TRUE,1.46096666666667,main_trials,2,filler,none,NA
179,3487,32,NA,0,FALSE,Graduated College,female,English,The Pope’s wife is a lawyer.,FALSE,1.46096666666667,main_trials,3,main,3,Condition 0
179,4485,32,NA,none,FALSE,Graduated College,female,English,Australia has a very large border with Brazil.,FALSE,1.46096666666667,main_trials,4,filler,none,NA
179,2955,32,NA,none,TRUE,Graduated College,female,English,"The Sydney Opera House, built in Australia’s biggest city, is famous for its roof’s architecture.",TRUE,1.46096666666667,main_trials,5,filler,none,NA
179,4289,32,NA,none,TRUE,Graduated College,female,English,The Pacific Ocean is a large ocean between Japan and the USA.,TRUE,1.46096666666667,main_trials,6,filler,none,NA
179,1305,32,NA,1,FALSE,Graduated College,female,English,"Canada has an emperor, and he is fond of sushi.",FALSE,1.46096666666667,main_trials,7,main,2,Condition 1
179,2460,32,NA,none,TRUE,Graduated College,female,English,"The simplest, functioning part of an organism is a cell.",TRUE,1.46096666666667,main_trials,8,filler,none,NA
179,2116,32,NA,10,FALSE,Graduated College,female,English,"Donald Trump, his favorite nature spot is not the Belgian rainforest.",FALSE,1.46096666666667,main_trials,9,main,4,Condition 10
179,4343,32,NA,none,TRUE,Graduated College,female,English,The Earth was once believed to be the centre of the universe.,TRUE,1.46096666666667,main_trials,10,filler,none,NA
179,1275,32,NA,none,TRUE,Graduated College,female,English,The Pope is currently not married.,TRUE,1.46096666666667,main_trials,11,special,3,NA
179,1612,32,NA,none,TRUE,Graduated College,female,English,Paris is a popular city for many tourists.,TRUE,1.46096666666667,main_trials,12,filler,none,NA
179,3098,32,NA,9,FALSE,Graduated College,female,English,"The King of France, he did not call Emmanuel Macron last night.",TRUE,1.46096666666667,main_trials,13,main,1,Condition 9
179,1590,32,NA,none,TRUE,Graduated College,female,English,Harry Potter is a series of fantasy novels written by J. K. Rowling.,TRUE,1.46096666666667,main_trials,14,filler,none,NA
179,1822,32,NA,none,FALSE,Graduated College,female,English,Taj Mahal is a mausoleum on the bank of the river in the city of Rome.,FALSE,1.46096666666667,main_trials,15,filler,none,NA
179,2759,32,NA,none,TRUE,Graduated College,female,English,Canada is a democracy.,TRUE,1.46096666666667,main_trials,16,special,2,NA
179,2729,32,NA,none,FALSE,Graduated College,female,English,Africa is the continent with the highest population density.,FALSE,1.46096666666667,main_trials,17,filler,none,NA
179,1305,32,NA,none,FALSE,Graduated College,female,English,Belgium has rainforests.,FALSE,1.46096666666667,main_trials,18,special,4,NA
179,2962,32,NA,6,FALSE,Graduated College,female,English,The volcanoes of Germany do not dominate the landscape.,TRUE,1.46096666666667,main_trials,19,main,5,Condition 6
179,1755,32,NA,none,TRUE,Graduated College,female,English,There were two world wars in the 20th Century.,TRUE,1.46096666666667,main_trials,20,filler,none,NA
179,3112,32,NA,none,TRUE,Graduated College,female,English,Planet Earth is part of the galaxy ‘Milky Way’.,TRUE,1.46096666666667,main_trials,21,filler,none,NA
179,1133,32,NA,none,FALSE,Graduated College,female,English,France has a king.,FALSE,1.46096666666667,main_trials,22,special,1,NA
179,3165,32,NA,none,FALSE,Graduated College,female,English,The Eiffel Tower is one of the most popular and frequently visited tourist attractions in Italy.,FALSE,1.46096666666667,main_trials,23,filler,none,NA
179,1680,32,NA,none,FALSE,Graduated College,female,English,Germany has volcanoes.,FALSE,1.46096666666667,main_trials,24,special,5,NA
178,3864,35,NA,none,TRUE,Graduated College,female,English,Venice is a city in Italy.,TRUE,3.30256666666667,main_trials,1,filler,none,NA
178,2656,35,NA,none,FALSE,Graduated College,female,English,Vatican City is the world's largest country by land area.,FALSE,3.30256666666667,main_trials,2,filler,none,NA
178,8880,35,NA,6,FALSE,Graduated College,female,English,The King of France isn’t bald.,FALSE,3.30256666666667,main_trials,3,main,1,Condition 6
178,2135,35,NA,none,TRUE,Graduated College,female,English,The capital city of Japan is Tokyo.,TRUE,3.30256666666667,main_trials,4,filler,none,NA
178,4487,35,NA,none,FALSE,Graduated College,female,English,Elvis Presley is one of the most popular musicians in this decade.,FALSE,3.30256666666667,main_trials,5,filler,none,NA
178,4632,35,NA,none,TRUE,Graduated College,female,English,"Birds are a group of vertebrates, characterized by feathers and wings.",TRUE,3.30256666666667,main_trials,6,filler,none,NA
178,2863,35,NA,0,FALSE,Graduated College,female,English,The Pope’s wife is a lawyer.,FALSE,3.30256666666667,main_trials,7,main,3,Condition 0
178,5688,35,NA,none,TRUE,Graduated College,female,English,"The statue of Jesus Christ is a famous sightseeing attraction in the city of Rio de Janeiro, Brazil.",TRUE,3.30256666666667,main_trials,8,filler,none,NA
178,3008,35,NA,1,FALSE,Graduated College,female,English,"There is a rainforest in Belgium, and it provides a habitat for many species.",FALSE,3.30256666666667,main_trials,9,main,4,Condition 1
178,6351,35,NA,none,TRUE,Graduated College,female,English,The University of Edinburgh is located in Great Britain.,TRUE,3.30256666666667,main_trials,10,filler,none,NA
178,26344,35,NA,none,FALSE,Graduated College,female,English,France has a king.,FALSE,3.30256666666667,main_trials,11,special,1,NA
178,6856,35,NA,none,TRUE,Graduated College,female,English,The Republic of South Africa is located in the continent of Africa.,TRUE,3.30256666666667,main_trials,12,filler,none,NA
178,8640,35,NA,10,FALSE,Graduated College,female,English,"Dresden, it is not the home of the Emperor of Canada for the summer.",TRUE,3.30256666666667,main_trials,13,main,2,Condition 10
178,3169,35,NA,none,TRUE,Graduated College,female,English,"National Geographic is a channel broadcasting documentaries about science, nature, and history.",TRUE,3.30256666666667,main_trials,14,filler,none,NA
178,5927,35,NA,none,TRUE,Graduated College,female,English,"Germany shares borders with France, Belgium and Denmark.",TRUE,3.30256666666667,main_trials,15,filler,none,NA
178,2664,35,NA,none,TRUE,Graduated College,female,English,The Pope is currently not married.,TRUE,3.30256666666667,main_trials,16,special,3,NA
178,3416,35,NA,none,TRUE,Graduated College,female,English,Charles Darwin was a biologist known for his theory of evolution.,TRUE,3.30256666666667,main_trials,17,filler,none,NA
178,2320,35,NA,none,FALSE,Graduated College,female,English,Belgium has rainforests.,FALSE,3.30256666666667,main_trials,18,special,4,NA
178,7728,35,NA,9,FALSE,Graduated College,female,English,"The volcanoes of Germany, they do not threaten Leipzig.",FALSE,3.30256666666667,main_trials,19,main,5,Condition 9
178,2519,35,NA,none,TRUE,Graduated College,female,English,The Solar System includes the planet Earth.,TRUE,3.30256666666667,main_trials,20,filler,none,NA
178,5000,35,NA,none,TRUE,Graduated College,female,English,An earthquake is the result of the sudden movement of the earth’s tectonic plates.,TRUE,3.30256666666667,main_trials,21,filler,none,NA
178,2016,35,NA,none,TRUE,Graduated College,female,English,Canada is a democracy.,TRUE,3.30256666666667,main_trials,22,special,2,NA
178,5551,35,NA,none,TRUE,Graduated College,female,English,Dinosaurs became extinct millions of years ago.,TRUE,3.30256666666667,main_trials,23,filler,none,NA
178,2319,35,NA,none,FALSE,Graduated College,female,English,Germany has volcanoes.,FALSE,3.30256666666667,main_trials,24,special,5,NA
177,2788,23,NA,none,FALSE,Graduated College,female,english,William Shakespeare was a famous Italian painter in Rome.,FALSE,4.08375,main_trials,1,filler,none,NA
177,4584,23,NA,none,TRUE,Graduated College,female,english,An earthquake is the result of the sudden movement of the earth’s tectonic plates.,TRUE,4.08375,main_trials,2,filler,none,NA
177,6042,23,NA,10,FALSE,Graduated College,female,english,"Angela Merkel, she was not invited by the Pope’s wife for dinner.",FALSE,4.08375,main_trials,3,main,3,Condition 10
177,4415,23,NA,none,TRUE,Graduated College,female,english,Currywurst is a popular fast food in Germany.,TRUE,4.08375,main_trials,4,filler,none,NA
177,4471,23,NA,none,FALSE,Graduated College,female,english,There is always a lot of snow during summer in Sydney.,FALSE,4.08375,main_trials,5,filler,none,NA
177,4851,23,NA,none,FALSE,Graduated College,female,english,Planet Earth is the sixth planet from the Sun.,TRUE,4.08375,main_trials,6,filler,none,NA
177,3341,23,NA,0,FALSE,Graduated College,female,english,The Belgian rainforest provides a habitat for many species.,TRUE,4.08375,main_trials,7,main,4,Condition 0
177,2163,23,NA,none,TRUE,Graduated College,female,english,Paris is a popular city for many tourists.,TRUE,4.08375,main_trials,8,filler,none,NA
177,5329,23,NA,9,FALSE,Graduated College,female,english,"The Emperor of Canada, he does not reside in Dresden for the summer.",FALSE,4.08375,main_trials,9,main,2,Condition 9
177,4488,23,NA,none,TRUE,Graduated College,female,english,Antarctica is a continent covered almost completely by ice.,TRUE,4.08375,main_trials,10,filler,none,NA
177,1714,23,NA,none,TRUE,Graduated College,female,english,The Pope is currently not married.,TRUE,4.08375,main_trials,11,special,3,NA
177,2372,23,NA,none,TRUE,Graduated College,female,english,The capital city of Russia is Moscow.,TRUE,4.08375,main_trials,12,filler,none,NA
177,2917,23,NA,6,FALSE,Graduated College,female,english,The King of France isn’t bald.,TRUE,4.08375,main_trials,13,main,1,Condition 6
177,3822,23,NA,none,FALSE,Graduated College,female,english,Vatican City is the world's largest country by land area.,FALSE,4.08375,main_trials,14,filler,none,NA
177,6447,23,NA,none,TRUE,Graduated College,female,english,The European Union (EU) is a political and economic union of 28 member states that are located primarily in Europe.,TRUE,4.08375,main_trials,15,filler,none,NA
177,2083,23,NA,none,FALSE,Graduated College,female,english,Belgium has rainforests.,FALSE,4.08375,main_trials,16,special,4,NA
177,5096,23,NA,none,TRUE,Graduated College,female,english,"Egypt is famous for the pyramids, the pharaohs and the Nile River.",TRUE,4.08375,main_trials,17,filler,none,NA
177,3117,23,NA,none,TRUE,Graduated College,female,english,Canada is a democracy.,FALSE,4.08375,main_trials,18,special,2,NA
177,4373,23,NA,1,FALSE,Graduated College,female,english,"There are volcanoes in Germany, and they dominate the landscape.",FALSE,4.08375,main_trials,19,main,5,Condition 1
177,3254,23,NA,none,TRUE,Graduated College,female,english,Harry Potter is a series of fantasy novels written by J. K. Rowling.,TRUE,4.08375,main_trials,20,filler,none,NA
177,1650,23,NA,none,TRUE,Graduated College,female,english,Monkeys like to eat bananas.,TRUE,4.08375,main_trials,21,filler,none,NA
177,1959,23,NA,none,FALSE,Graduated College,female,english,France has a king.,FALSE,4.08375,main_trials,22,special,1,NA
177,4947,23,NA,none,TRUE,Graduated College,female,english,"Birds are a group of vertebrates, characterized by feathers and wings.",TRUE,4.08375,main_trials,23,filler,none,NA
177,1778,23,NA,none,FALSE,Graduated College,female,english,Germany has volcanoes.,FALSE,4.08375,main_trials,24,special,5,NA
176,6828,29,NA,none,TRUE,Graduated High School,male,English,"Michael Jackson was one of the most popular singers, songwriters, and dancers, known also as the ‘King of Pop’.",TRUE,4.68596666666667,main_trials,1,filler,none,NA
176,5413,29,NA,none,TRUE,Graduated High School,male,English,The brain is made up of very special cells called neurons.,TRUE,4.68596666666667,main_trials,2,filler,none,NA
176,10647,29,NA,9,FALSE,Graduated High School,male,English,"The Pope’s wife, she did not invite Angela Merkel for dinner.",FALSE,4.68596666666667,main_trials,3,main,3,Condition 9
176,10031,29,NA,none,TRUE,Graduated High School,male,English,In the German language every noun has a gender.,FALSE,4.68596666666667,main_trials,4,filler,none,NA
176,15350,29,NA,none,TRUE,Graduated High School,male,English,The European Union (EU) is a political and economic union of 28 member states that are located primarily in Europe.,TRUE,4.68596666666667,main_trials,5,filler,none,NA
176,5273,29,NA,none,TRUE,Graduated High School,male,English,The Moon is an astronomical body that orbits planet Earth.,TRUE,4.68596666666667,main_trials,6,filler,none,NA
176,5120,29,NA,1,FALSE,Graduated High School,male,English,"France has a king, and he is bald.",FALSE,4.68596666666667,main_trials,7,main,1,Condition 1
176,10345,29,NA,none,FALSE,Graduated High School,male,English,The Eiffel Tower is one of the most popular and frequently visited tourist attractions in Italy.,FALSE,4.68596666666667,main_trials,8,filler,none,NA
176,12713,29,NA,10,FALSE,Graduated High School,male,English,"Dresden, it is not the home of the Emperor of Canada for the summer.",FALSE,4.68596666666667,main_trials,9,main,2,Condition 10
176,5082,29,NA,none,FALSE,Graduated High School,male,English,Justin Bieber has won 3 gold olympic medals.,FALSE,4.68596666666667,main_trials,10,filler,none,NA
176,4930,29,NA,none,TRUE,Graduated High School,male,English,The Pope is currently not married.,TRUE,4.68596666666667,main_trials,11,special,3,NA
176,4663,29,NA,none,TRUE,Graduated High School,male,English,The Solar System includes the planet Earth.,TRUE,4.68596666666667,main_trials,12,filler,none,NA
176,12121,29,NA,6,FALSE,Graduated High School,male,English,The Belgian rainforest doesn’t provide a habitat for many species.,FALSE,4.68596666666667,main_trials,13,main,4,Condition 6
176,4175,29,NA,none,TRUE,Graduated High School,male,English,Three is a prime number.,TRUE,4.68596666666667,main_trials,14,filler,none,NA
176,6184,29,NA,none,TRUE,Graduated High School,male,English,Water is of major importance to all living organisms.,TRUE,4.68596666666667,main_trials,15,filler,none,NA
176,8355,29,NA,none,FALSE,Graduated High School,male,English,France has a king.,TRUE,4.68596666666667,main_trials,16,special,1,NA
176,16976,29,NA,none,TRUE,Graduated High School,male,English,The Pacific Ocean is a large ocean between Japan and the USA.,FALSE,4.68596666666667,main_trials,17,filler,none,NA
176,6835,29,NA,none,TRUE,Graduated High School,male,English,Canada is a democracy.,TRUE,4.68596666666667,main_trials,18,special,2,NA
176,10416,29,NA,0,FALSE,Graduated High School,male,English,The volcanoes of Germany dominate the landscape.,FALSE,4.68596666666667,main_trials,19,main,5,Condition 0
176,8397,29,NA,none,TRUE,Graduated High School,male,English,Antarctica is the biggest continent on Earth.,FALSE,4.68596666666667,main_trials,20,filler,none,NA
176,4761,29,NA,none,TRUE,Graduated High School,male,English,The Statue of Liberty is a colossal sculpture on Liberty Island in New York City in the United States.,TRUE,4.68596666666667,main_trials,21,filler,none,NA
176,6006,29,NA,none,FALSE,Graduated High School,male,English,Belgium has rainforests.,TRUE,4.68596666666667,main_trials,22,special,4,NA
176,7837,29,NA,none,TRUE,Graduated High School,male,English,The heart is an organ in your body that pumps blood to other organs.,TRUE,4.68596666666667,main_trials,23,filler,none,NA
176,3718,29,NA,none,FALSE,Graduated High School,male,English,Germany has volcanoes.,TRUE,4.68596666666667,main_trials,24,special,5,NA
175,6452,32,NA,none,TRUE,Graduated College,female,English,The Grand Canyon in Arizona (USA) is the largest canyon in the world.,TRUE,3.90543333333333,main_trials,1,filler,none,NA
175,2214,32,NA,none,TRUE,Graduated College,female,English,The capital city of Russia is Moscow.,TRUE,3.90543333333333,main_trials,2,filler,none,NA
175,5459,32,NA,6,FALSE,Graduated College,female,English,The King of France isn’t bald.,FALSE,3.90543333333333,main_trials,3,main,1,Condition 6
175,5017,32,NA,none,TRUE,Graduated College,female,English,Water boils at 100 degree C.,TRUE,3.90543333333333,main_trials,4,filler,none,NA
175,4735,32,NA,none,FALSE,Graduated College,female,English,Africa is the continent with the highest population density.,TRUE,3.90543333333333,main_trials,5,filler,none,NA
175,4007,32,NA,none,TRUE,Graduated College,female,English,One of the longest rivers in Europe is the Rhine.,TRUE,3.90543333333333,main_trials,6,filler,none,NA
175,9349,32,NA,1,FALSE,Graduated College,female,English,"There are volcanoes in Germany, and they dominate the landscape.",FALSE,3.90543333333333,main_trials,7,main,5,Condition 1
175,2443,32,NA,none,TRUE,Graduated College,female,English,Trees absorb carbon dioxide and release oxygen.,TRUE,3.90543333333333,main_trials,8,filler,none,NA
175,5959,32,NA,9,FALSE,Graduated College,female,English,"The Pope’s wife, she did not invite Angela Merkel for dinner.",TRUE,3.90543333333333,main_trials,9,main,3,Condition 9
175,4663,32,NA,none,FALSE,Graduated College,female,English,In the Sahara you can do a variety of winter sports.,FALSE,3.90543333333333,main_trials,10,filler,none,NA
175,3361,32,NA,none,FALSE,Graduated College,female,English,France has a king.,TRUE,3.90543333333333,main_trials,11,special,1,NA
175,3609,32,NA,none,TRUE,Graduated College,female,English,"Michael Jackson was one of the most popular singers, songwriters, and dancers, known also as the ‘King of Pop’.",TRUE,3.90543333333333,main_trials,12,filler,none,NA
175,8258,32,NA,10,FALSE,Graduated College,female,English,"Dresden, it is not the home of the Emperor of Canada for the summer.",FALSE,3.90543333333333,main_trials,13,main,2,Condition 10
175,6875,32,NA,none,FALSE,Graduated College,female,English,Vatican City is the world's largest country by land area.,FALSE,3.90543333333333,main_trials,14,filler,none,NA
175,3960,32,NA,none,FALSE,Graduated College,female,English,Taj Mahal is a mausoleum on the bank of the river in the city of Rome.,TRUE,3.90543333333333,main_trials,15,filler,none,NA
175,2324,32,NA,none,FALSE,Graduated College,female,English,Germany has volcanoes.,FALSE,3.90543333333333,main_trials,16,special,5,NA
175,5416,32,NA,none,TRUE,Graduated College,female,English,Earth is the third planet from the sun.,TRUE,3.90543333333333,main_trials,17,filler,none,NA
175,4273,32,NA,none,TRUE,Graduated College,female,English,The Pope is currently not married.,TRUE,3.90543333333333,main_trials,18,special,3,NA
175,5903,32,NA,0,FALSE,Graduated College,female,English,The Belgian rainforest provides a habitat for many species.,TRUE,3.90543333333333,main_trials,19,main,4,Condition 0
175,4236,32,NA,none,TRUE,Graduated College,female,English,Mount Everest is the highest mountain on Earth.,TRUE,3.90543333333333,main_trials,20,filler,none,NA
175,3256,32,NA,none,TRUE,Graduated College,female,English,Russia is one of the biggest countries in the world.,TRUE,3.90543333333333,main_trials,21,filler,none,NA
175,2884,32,NA,none,TRUE,Graduated College,female,English,Canada is a democracy.,TRUE,3.90543333333333,main_trials,22,special,2,NA
175,8451,32,NA,none,FALSE,Graduated College,female,English,India is the smallest country in Europe.,FALSE,3.90543333333333,main_trials,23,filler,none,NA
175,1886,32,NA,none,FALSE,Graduated College,female,English,Belgium has rainforests.,TRUE,3.90543333333333,main_trials,24,special,4,NA
174,9161,51,NA,none,FALSE,Graduated High School,male,English,Justin Bieber has won 3 gold olympic medals.,FALSE,4.8326,main_trials,1,filler,none,NA
174,7693,51,NA,none,TRUE,Graduated High School,male,English,Charles Darwin was a biologist known for his theory of evolution.,TRUE,4.8326,main_trials,2,filler,none,NA
174,5023,51,NA,6,FALSE,Graduated High School,male,English,The Pope’s wife isn’t a lawyer.,FALSE,4.8326,main_trials,3,main,3,Condition 6
174,6155,51,NA,none,FALSE,Graduated High School,male,English,Switzerland is a member of the European Union.,TRUE,4.8326,main_trials,4,filler,none,NA
174,5392,51,NA,none,TRUE,Graduated High School,male,English,Antarctica is a continent covered almost completely by ice.,TRUE,4.8326,main_trials,5,filler,none,NA
174,6915,51,NA,none,TRUE,Graduated High School,male,English,There are more than 2 countries in the United Nations.,TRUE,4.8326,main_trials,6,filler,none,NA
174,5085,51,NA,0,FALSE,Graduated High School,male,English,The volcanoes of Germany dominate the landscape.,TRUE,4.8326,main_trials,7,main,5,Condition 0
174,9119,51,NA,none,FALSE,Graduated High School,male,English,The Eiffel Tower is one of the most popular and frequently visited tourist attractions in Italy.,TRUE,4.8326,main_trials,8,filler,none,NA
174,13621,51,NA,10,FALSE,Graduated High School,male,English,"Donald Trump, his favorite nature spot is not the Belgian rainforest.",TRUE,4.8326,main_trials,9,main,4,Condition 10
174,4263,51,NA,none,FALSE,Graduated High School,male,English,Albert Einstein was a very famous Chinese scientist.,FALSE,4.8326,main_trials,10,filler,none,NA
174,9227,51,NA,none,TRUE,Graduated High School,male,English,The Pope is currently not married.,TRUE,4.8326,main_trials,11,special,3,NA
174,7764,51,NA,none,TRUE,Graduated High School,male,English,"The simplest, functioning part of an organism is a cell.",FALSE,4.8326,main_trials,12,filler,none,NA
174,11986,51,NA,9,FALSE,Graduated High School,male,English,"The King of France, he did not call Emmanuel Macron last night.",FALSE,4.8326,main_trials,13,main,1,Condition 9
174,4284,51,NA,none,TRUE,Graduated High School,male,English,The Grand Canyon in Arizona (USA) is the largest canyon in the world.,TRUE,4.8326,main_trials,14,filler,none,NA
174,7741,51,NA,none,TRUE,Graduated High School,male,English,Trees absorb carbon dioxide and release oxygen.,TRUE,4.8326,main_trials,15,filler,none,NA
174,3613,51,NA,none,FALSE,Graduated High School,male,English,Germany has volcanoes.,FALSE,4.8326,main_trials,16,special,5,NA
174,5769,51,NA,none,TRUE,Graduated High School,male,English,"English is the main language in Australia, Britain and New Zealand.",TRUE,4.8326,main_trials,17,filler,none,NA
174,3877,51,NA,none,FALSE,Graduated High School,male,English,Belgium has rainforests.,FALSE,4.8326,main_trials,18,special,4,NA
174,8061,51,NA,1,FALSE,Graduated High School,male,English,"Canada has an emperor, and he is fond of sushi.",FALSE,4.8326,main_trials,19,main,2,Condition 1
174,5355,51,NA,none,TRUE,Graduated High School,male,English,The Sun is in the centre of the Solar System.,TRUE,4.8326,main_trials,20,filler,none,NA
174,12039,51,NA,none,TRUE,Graduated High School,male,English,Square root of 16 is 4.,TRUE,4.8326,main_trials,21,filler,none,NA
174,7225,51,NA,none,FALSE,Graduated High School,male,English,France has a king.,FALSE,4.8326,main_trials,22,special,1,NA
174,4458,51,NA,none,FALSE,Graduated High School,male,English,Big Ben is a very large building in the middle of Paris.,FALSE,4.8326,main_trials,23,filler,none,NA
174,5373,51,NA,none,TRUE,Graduated High School,male,English,Canada is a democracy.,FALSE,4.8326,main_trials,24,special,2,NA
173,3926,20,NA,none,TRUE,Graduated High School,female,English,The brain is made up of very special cells called neurons.,TRUE,3.49776666666667,main_trials,1,filler,none,NA
173,2701,20,NA,none,FALSE,Graduated High School,female,English,The University of Oxford is a business that sells mobile phones.,FALSE,3.49776666666667,main_trials,2,filler,none,NA
173,3157,20,NA,1,FALSE,Graduated High School,female,English,"France has a king, and he is bald.",FALSE,3.49776666666667,main_trials,3,main,1,Condition 1
173,5544,20,NA,none,TRUE,Graduated High School,female,English,Test of English as a Foreign Language (TOEFL) is a standardized test to measure the English language ability of non-native speakers.,TRUE,3.49776666666667,main_trials,4,filler,none,NA
173,2442,20,NA,none,TRUE,Graduated High School,female,English,Email is a method of exchanging messages.,TRUE,3.49776666666667,main_trials,5,filler,none,NA
173,3235,20,NA,none,TRUE,Graduated High School,female,English,The European Union (EU) is a political and economic union of 28 member states that are located primarily in Europe.,TRUE,3.49776666666667,main_trials,6,filler,none,NA
173,5458,20,NA,9,FALSE,Graduated High School,female,English,"The Emperor of Canada, he does not reside in Dresden for the summer.",FALSE,3.49776666666667,main_trials,7,main,2,Condition 9
173,7398,20,NA,none,TRUE,Graduated High School,female,English,The Statue of Liberty is a colossal sculpture on Liberty Island in New York City in the United States.,TRUE,3.49776666666667,main_trials,8,filler,none,NA
173,6533,20,NA,10,FALSE,Graduated High School,female,English,"Leipzig, it is not threatened by the volcanoes of Germany.",FALSE,3.49776666666667,main_trials,9,main,5,Condition 10
173,3031,20,NA,none,TRUE,Graduated High School,female,English,The brain needs a constant supply of oxygen to perform basic functions.,TRUE,3.49776666666667,main_trials,10,filler,none,NA
173,8576,20,NA,none,FALSE,Graduated High School,female,English,France has a king.,FALSE,3.49776666666667,main_trials,11,special,1,NA
173,4852,20,NA,none,TRUE,Graduated High School,female,English,"Brazil, Canada and Russia are all bigger countries than Switzerland.",TRUE,3.49776666666667,main_trials,12,filler,none,NA
173,6165,20,NA,6,FALSE,Graduated High School,female,English,The Belgian rainforest doesn’t provide a habitat for many species.,FALSE,3.49776666666667,main_trials,13,main,4,Condition 6
173,1971,20,NA,none,FALSE,Graduated High School,female,English,Justin Bieber has won 3 gold olympic medals.,FALSE,3.49776666666667,main_trials,14,filler,none,NA
173,5694,20,NA,none,TRUE,Graduated High School,female,English,The Great Wall is one of the seven wonders of the world.,TRUE,3.49776666666667,main_trials,15,filler,none,NA
173,1752,20,NA,none,TRUE,Graduated High School,female,English,Canada is a democracy.,TRUE,3.49776666666667,main_trials,16,special,2,NA
173,2246,20,NA,none,TRUE,Graduated High School,female,English,Mount Everest is the highest mountain on Earth.,TRUE,3.49776666666667,main_trials,17,filler,none,NA
173,1516,20,NA,none,FALSE,Graduated High School,female,English,Germany has volcanoes.,FALSE,3.49776666666667,main_trials,18,special,5,NA
173,1357,20,NA,0,FALSE,Graduated High School,female,English,The Pope’s wife is a lawyer.,FALSE,3.49776666666667,main_trials,19,main,3,Condition 0
173,3895,20,NA,none,TRUE,Graduated High School,female,English,There were two world wars in the 20th Century.,TRUE,3.49776666666667,main_trials,20,filler,none,NA
173,5812,20,NA,none,TRUE,Graduated High School,female,English,"Egypt is famous for the pyramids, the pharaohs and the Nile River.",TRUE,3.49776666666667,main_trials,21,filler,none,NA
173,7352,20,NA,none,FALSE,Graduated High School,female,English,Belgium has rainforests.,FALSE,3.49776666666667,main_trials,22,special,4,NA
173,5293,20,NA,none,TRUE,Graduated High School,female,English,The town of Pisa in Italy is famous for its Leaning Tower of Pisa.,TRUE,3.49776666666667,main_trials,23,filler,none,NA
173,8239,20,NA,none,TRUE,Graduated High School,female,English,The Pope is currently not married.,TRUE,3.49776666666667,main_trials,24,special,3,NA
172,2121,19,NA,none,TRUE,Graduated High School,male,English,Square root of 16 is 4.,TRUE,4.35336666666667,main_trials,1,filler,none,NA
172,1779,19,NA,none,TRUE,Graduated High School,male,English,Water boils at 100 degree C.,TRUE,4.35336666666667,main_trials,2,filler,none,NA
172,2478,19,NA,1,FALSE,Graduated High School,male,English,"There are volcanoes in Germany, and they dominate the landscape.",FALSE,4.35336666666667,main_trials,3,main,5,Condition 1
172,11405,19,NA,none,TRUE,Graduated High School,male,English,"The Bermuda Triangle, is a region in the Atlantic Ocean, where a number of aircraft and ships are said to have disappeared under mysterious circumstances.",TRUE,4.35336666666667,main_trials,4,filler,none,NA
172,1684,19,NA,none,TRUE,Graduated High School,male,English,Earth is the third planet from the sun.,TRUE,4.35336666666667,main_trials,5,filler,none,NA
172,5308,19,NA,none,TRUE,Graduated High School,male,English,The Republic of South Africa is located in the continent of Africa.,TRUE,4.35336666666667,main_trials,6,filler,none,NA
172,3093,19,NA,9,FALSE,Graduated High School,male,English,"The Belgian rainforest, it is not the favorite nature spot of Donald Trump.",FALSE,4.35336666666667,main_trials,7,main,4,Condition 9
172,4120,19,NA,none,FALSE,Graduated High School,male,English,The University of Oxford is a business that sells mobile phones.,FALSE,4.35336666666667,main_trials,8,filler,none,NA
172,5516,19,NA,6,FALSE,Graduated High School,male,English,The King of France isn’t bald.,FALSE,4.35336666666667,main_trials,9,main,1,Condition 6
172,1911,19,NA,none,TRUE,Graduated High School,male,English,Currywurst is a popular fast food in Germany.,FALSE,4.35336666666667,main_trials,10,filler,none,NA
172,1888,19,NA,none,FALSE,Graduated High School,male,English,Germany has volcanoes.,TRUE,4.35336666666667,main_trials,11,special,5,NA
172,4455,19,NA,none,TRUE,Graduated High School,male,English,The Brandenburg Gate is a monument in Berlin.,TRUE,4.35336666666667,main_trials,12,filler,none,NA
172,2972,19,NA,0,FALSE,Graduated High School,male,English,The Emperor of Canada is fond of sushi.,FALSE,4.35336666666667,main_trials,13,main,2,Condition 0
172,10958,19,NA,none,FALSE,Graduated High School,male,English,People love the polar bears in Australia.,FALSE,4.35336666666667,main_trials,14,filler,none,NA
172,2321,19,NA,none,TRUE,Graduated High School,male,English,"National Geographic is a channel broadcasting documentaries about science, nature, and history.",TRUE,4.35336666666667,main_trials,15,filler,none,NA
172,1139,19,NA,none,FALSE,Graduated High School,male,English,Belgium has rainforests.,TRUE,4.35336666666667,main_trials,16,special,4,NA
172,4524,19,NA,none,TRUE,Graduated High School,male,English,In the German language every noun has a gender.,TRUE,4.35336666666667,main_trials,17,filler,none,NA
172,1698,19,NA,none,FALSE,Graduated High School,male,English,France has a king.,TRUE,4.35336666666667,main_trials,18,special,1,NA
172,6095,19,NA,10,FALSE,Graduated High School,male,English,"Angela Merkel, she was not invited by the Pope’s wife for dinner.",FALSE,4.35336666666667,main_trials,19,main,3,Condition 10
172,26799,19,NA,none,TRUE,Graduated High School,male,English,An earthquake is the result of the sudden movement of the earth’s tectonic plates.,TRUE,4.35336666666667,main_trials,20,filler,none,NA
172,1369,19,NA,none,TRUE,Graduated High School,male,English,The Grand Canyon in Arizona (USA) is the largest canyon in the world.,TRUE,4.35336666666667,main_trials,21,filler,none,NA
172,1273,19,NA,none,TRUE,Graduated High School,male,English,Canada is a democracy.,TRUE,4.35336666666667,main_trials,22,special,2,NA
172,4209,19,NA,none,TRUE,Graduated High School,male,English,Water is of major importance to all living organisms.,TRUE,4.35336666666667,main_trials,23,filler,none,NA
172,22155,19,NA,none,TRUE,Graduated High School,male,English,The Pope is currently not married.,FALSE,4.35336666666667,main_trials,24,special,3,NA
171,4047,41,NA,none,FALSE,Graduated High School,male,English,The Leaning Tower of Pisa is one of Germany’s major tourist attractions.,FALSE,3.46208333333333,main_trials,1,filler,none,NA
171,4206,41,NA,none,FALSE,Graduated High School,male,English,Vatican City is the world's largest country by land area.,FALSE,3.46208333333333,main_trials,2,filler,none,NA
171,5366,41,NA,1,FALSE,Graduated High School,male,English,"There is a rainforest in Belgium, and it provides a habitat for many species.",FALSE,3.46208333333333,main_trials,3,main,4,Condition 1
171,6405,41,NA,none,TRUE,Graduated High School,male,English,Three is a prime number.,TRUE,3.46208333333333,main_trials,4,filler,none,NA
171,5233,41,NA,none,TRUE,Graduated High School,male,English,Valentine's Day is celebrated in many ways worldwide.,TRUE,3.46208333333333,main_trials,5,filler,none,NA
171,5272,41,NA,none,FALSE,Graduated High School,male,English,Taj Mahal is a mausoleum on the bank of the river in the city of Rome.,FALSE,3.46208333333333,main_trials,6,filler,none,NA
171,7858,41,NA,6,FALSE,Graduated High School,male,English,The Emperor of Canada isn’t fond of sushi.,FALSE,3.46208333333333,main_trials,7,main,2,Condition 6
171,6735,41,NA,none,TRUE,Graduated High School,male,English,"National Geographic is a channel broadcasting documentaries about science, nature, and history.",TRUE,3.46208333333333,main_trials,8,filler,none,NA
171,4031,41,NA,0,FALSE,Graduated High School,male,English,The king of France is bald.,FALSE,3.46208333333333,main_trials,9,main,1,Condition 0
171,4993,41,NA,none,TRUE,Graduated High School,male,English,Monkeys like to eat bananas.,FALSE,3.46208333333333,main_trials,10,filler,none,NA
171,2206,41,NA,none,FALSE,Graduated High School,male,English,Belgium has rainforests.,FALSE,3.46208333333333,main_trials,11,special,4,NA
171,3008,41,NA,none,TRUE,Graduated High School,male,English,Venice is a city in Italy.,TRUE,3.46208333333333,main_trials,12,filler,none,NA
171,16791,41,NA,10,FALSE,Graduated High School,male,English,"Angela Merkel, she was not invited by the Pope’s wife for dinner.",TRUE,3.46208333333333,main_trials,13,main,3,Condition 10
171,4258,41,NA,none,FALSE,Graduated High School,male,English,India is the smallest country in Europe.,FALSE,3.46208333333333,main_trials,14,filler,none,NA
171,6336,41,NA,none,TRUE,Graduated High School,male,English,Trees absorb carbon dioxide and release oxygen.,TRUE,3.46208333333333,main_trials,15,filler,none,NA
171,3469,41,NA,none,TRUE,Graduated High School,male,English,Canada is a democracy.,TRUE,3.46208333333333,main_trials,16,special,2,NA
171,11872,41,NA,none,TRUE,Graduated High School,male,English,The Great Pyramid of Giza is one of the Seven Wonders of the Ancient World and the only one of these ancient world wonders which still exists.,TRUE,3.46208333333333,main_trials,17,filler,none,NA
171,2285,41,NA,none,FALSE,Graduated High School,male,English,France has a king.,FALSE,3.46208333333333,main_trials,18,special,1,NA
171,10046,41,NA,9,FALSE,Graduated High School,male,English,"The volcanoes of Germany, they do not threaten Leipzig.",FALSE,3.46208333333333,main_trials,19,main,5,Condition 9
171,2932,41,NA,none,FALSE,Graduated High School,male,English,Romeo and Juliet is a tragedy written by Leo Tolstoy.,FALSE,3.46208333333333,main_trials,20,filler,none,NA
171,4986,41,NA,none,TRUE,Graduated High School,male,English,The United Nations (UN) is an intergovernmental organization tasked to promote international cooperation and to create and maintain international order.,TRUE,3.46208333333333,main_trials,21,filler,none,NA
171,2589,41,NA,none,TRUE,Graduated High School,male,English,The Pope is currently not married.,TRUE,3.46208333333333,main_trials,22,special,3,NA
171,2868,41,NA,none,TRUE,Graduated High School,male,English,The capital city of Japan is Tokyo.,TRUE,3.46208333333333,main_trials,23,filler,none,NA
171,1768,41,NA,none,FALSE,Graduated High School,male,English,Germany has volcanoes.,FALSE,3.46208333333333,main_trials,24,special,5,NA
170,35502,42,NA,none,TRUE,Graduated High School,male,English,Dinosaurs became extinct millions of years ago.,TRUE,4.0559,main_trials,1,filler,none,NA
170,3458,42,NA,none,TRUE,Graduated High School,male,English,The Brandenburg Gate is a monument in Berlin.,TRUE,4.0559,main_trials,2,filler,none,NA
170,3831,42,NA,9,FALSE,Graduated High School,male,English,"The Pope’s wife, she did not invite Angela Merkel for dinner.",FALSE,4.0559,main_trials,3,main,3,Condition 9
170,10202,42,NA,none,TRUE,Graduated High School,male,English,"The simplest, functioning part of an organism is a cell.",TRUE,4.0559,main_trials,4,filler,none,NA
170,2041,42,NA,none,TRUE,Graduated High School,male,English,Canada is a country located in North America.,TRUE,4.0559,main_trials,5,filler,none,NA
170,1687,42,NA,none,FALSE,Graduated High School,male,English,London is the capital of Asia.,FALSE,4.0559,main_trials,6,filler,none,NA
170,5002,42,NA,6,FALSE,Graduated High School,male,English,The volcanoes of Germany do not dominate the landscape.,TRUE,4.0559,main_trials,7,main,5,Condition 6
170,3266,42,NA,none,FALSE,Graduated High School,male,English,The Eiffel Tower is one of the most popular and frequently visited tourist attractions in Italy.,FALSE,4.0559,main_trials,8,filler,none,NA
170,2349,42,NA,1,FALSE,Graduated High School,male,English,"Canada has an emperor, and he is fond of sushi.",FALSE,4.0559,main_trials,9,main,2,Condition 1
170,3185,42,NA,none,TRUE,Graduated High School,male,English,Email is a method of exchanging messages.,TRUE,4.0559,main_trials,10,filler,none,NA
170,2800,42,NA,none,TRUE,Graduated High School,male,English,The Pope is currently not married.,TRUE,4.0559,main_trials,11,special,3,NA
170,8038,42,NA,none,TRUE,Graduated High School,male,English,"Brazil, Canada and Russia are all bigger countries than Switzerland.",TRUE,4.0559,main_trials,12,filler,none,NA
170,6672,42,NA,10,FALSE,Graduated High School,male,English,"Donald Trump, his favorite nature spot is not the Belgian rainforest.",TRUE,4.0559,main_trials,13,main,4,Condition 10
170,13148,42,NA,none,TRUE,Graduated High School,male,English,Brazil is the largest country in South America.,TRUE,4.0559,main_trials,14,filler,none,NA
170,4588,42,NA,none,TRUE,Graduated High School,male,English,The Statue of Liberty is a colossal sculpture on Liberty Island in New York City in the United States.,TRUE,4.0559,main_trials,15,filler,none,NA
170,2464,42,NA,none,FALSE,Graduated High School,male,English,Germany has volcanoes.,FALSE,4.0559,main_trials,16,special,5,NA
170,2838,42,NA,none,FALSE,Graduated High School,male,English,Romeo and Juliet is a tragedy written by Leo Tolstoy.,FALSE,4.0559,main_trials,17,filler,none,NA
170,19862,42,NA,none,TRUE,Graduated High School,male,English,Canada is a democracy.,TRUE,4.0559,main_trials,18,special,2,NA
170,3016,42,NA,0,FALSE,Graduated High School,male,English,The king of France is bald.,FALSE,4.0559,main_trials,19,main,1,Condition 0
170,4228,42,NA,none,TRUE,Graduated High School,male,English,One molecule of water (H2O) has two hydrogen atoms.,TRUE,4.0559,main_trials,20,filler,none,NA
170,3095,42,NA,none,TRUE,Graduated High School,male,English,Antarctica is a continent covered almost completely by ice.,TRUE,4.0559,main_trials,21,filler,none,NA
170,5462,42,NA,none,FALSE,Graduated High School,male,English,Belgium has rainforests.,FALSE,4.0559,main_trials,22,special,4,NA
170,3621,42,NA,none,FALSE,Graduated High School,male,English,There is always a lot of snow during summer in Sydney.,FALSE,4.0559,main_trials,23,filler,none,NA
170,1769,42,NA,none,FALSE,Graduated High School,male,English,France has a king.,FALSE,4.0559,main_trials,24,special,1,NA
169,2344,32,n/a,none,FALSE,Graduated College,male,english,Elvis Presley is one of the most popular musicians in this decade.,TRUE,4.77051666666667,main_trials,1,filler,none,NA
169,20327,32,n/a,none,TRUE,Graduated College,male,english,The Moon is an astronomical body that orbits planet Earth.,TRUE,4.77051666666667,main_trials,2,filler,none,NA
169,12357,32,n/a,6,FALSE,Graduated College,male,english,The volcanoes of Germany do not dominate the landscape.,TRUE,4.77051666666667,main_trials,3,main,5,Condition 6
169,2781,32,n/a,none,TRUE,Graduated College,male,english,The Earth was once believed to be the centre of the universe.,TRUE,4.77051666666667,main_trials,4,filler,none,NA
169,20968,32,n/a,none,TRUE,Graduated College,male,english,One molecule of water (H2O) has two hydrogen atoms.,FALSE,4.77051666666667,main_trials,5,filler,none,NA
169,3477,32,n/a,none,TRUE,Graduated College,male,english,Three is a prime number.,TRUE,4.77051666666667,main_trials,6,filler,none,NA
169,1763,32,n/a,0,FALSE,Graduated College,male,english,The king of France is bald.,FALSE,4.77051666666667,main_trials,7,main,1,Condition 0
169,18835,32,n/a,none,TRUE,Graduated College,male,english,"English is the main language in Australia, Britain and New Zealand.",FALSE,4.77051666666667,main_trials,8,filler,none,NA
169,11857,32,n/a,9,FALSE,Graduated College,male,english,"The Belgian rainforest, it is not the favorite nature spot of Donald Trump.",TRUE,4.77051666666667,main_trials,9,main,4,Condition 9
169,5545,32,n/a,none,TRUE,Graduated College,male,english,The United Nations Children's Fund (UNICEF) provides humanitarian and developmental assistance to children and mothers in developing countries.,TRUE,4.77051666666667,main_trials,10,filler,none,NA
169,2711,32,n/a,none,FALSE,Graduated College,male,english,Germany has volcanoes.,TRUE,4.77051666666667,main_trials,11,special,5,NA
169,5266,32,n/a,none,TRUE,Graduated College,male,english,"Brazil, Canada and Russia are all bigger countries than Switzerland.",TRUE,4.77051666666667,main_trials,12,filler,none,NA
169,2045,32,n/a,1,FALSE,Graduated College,male,english,"Canada has an emperor, and he is fond of sushi.",FALSE,4.77051666666667,main_trials,13,main,2,Condition 1
169,1905,32,n/a,none,TRUE,Graduated College,male,english,Charles Darwin was a biologist known for his theory of evolution.,TRUE,4.77051666666667,main_trials,14,filler,none,NA
169,3577,32,n/a,none,TRUE,Graduated College,male,english,"The statue of Jesus Christ is a famous sightseeing attraction in the city of Rio de Janeiro, Brazil.",TRUE,4.77051666666667,main_trials,15,filler,none,NA
169,2929,32,n/a,none,FALSE,Graduated College,male,english,France has a king.,TRUE,4.77051666666667,main_trials,16,special,1,NA
169,3983,32,n/a,none,TRUE,Graduated College,male,english,The United Nations (UN) is an intergovernmental organization tasked to promote international cooperation and to create and maintain international order.,TRUE,4.77051666666667,main_trials,17,filler,none,NA
169,2758,32,n/a,none,FALSE,Graduated College,male,english,Belgium has rainforests.,TRUE,4.77051666666667,main_trials,18,special,4,NA
169,10263,32,n/a,10,FALSE,Graduated College,male,english,"Angela Merkel, she was not invited by the Pope’s wife for dinner.",TRUE,4.77051666666667,main_trials,19,main,3,Condition 10
