submission_id,QUD,RT,age,comments,correctness,education,elemSize,endTime,expected,experiment_id,f,focalColor,focalNumber,focalShape,gender,j,key1,key2,key_pressed,languages,pause,response,sort,startDate,startTime,stimulus,target,timeSpent,total,trial_number,trial_type
8554,Press SPACE when you see a shape on the screen,376,21,,correct,high school / college,100,1570373554623,NA,68,NA,blue,1,square,female,NA,NA,NA,NA,Right,2631,space,grid,Sun Oct 06 2019 15:45:19 GMT+0100 (Hora de verão da Europa Ocidental),1570373119539,square,square,7.2514,1,1,reaction_practice
8554,Press SPACE when you see a shape on the screen,311,21,,correct,high school / college,100,1570373554623,NA,68,NA,blue,1,square,female,NA,NA,NA,NA,Right,1700,space,grid,Sun Oct 06 2019 15:45:19 GMT+0100 (Hora de verão da Europa Ocidental),1570373119539,square,square,7.2514,1,2,reaction_practice
8554,Press SPACE when you see a shape on the screen,329,21,,correct,high school / college,100,1570373554623,NA,68,NA,blue,1,circle,female,NA,NA,NA,NA,Right,1322,space,grid,Sun Oct 06 2019 15:45:19 GMT+0100 (Hora de verão da Europa Ocidental),1570373119539,circle,circle,7.2514,1,3,reaction_practice
8554,Press SPACE when you see a shape on the screen,270,21,,correct,high school / college,100,1570373554623,NA,68,NA,blue,1,square,female,NA,NA,NA,NA,Right,1787,space,grid,Sun Oct 06 2019 15:45:19 GMT+0100 (Hora de verão da Europa Ocidental),1570373119539,square,square,7.2514,1,4,reaction_practice
8554,Press SPACE when you see a shape on the screen,284,21,,correct,high school / college,100,1570373554623,NA,68,NA,blue,1,circle,female,NA,NA,NA,NA,Right,1295,space,grid,Sun Oct 06 2019 15:45:19 GMT+0100 (Hora de verão da Europa Ocidental),1570373119539,circle,circle,7.2514,1,5,reaction_practice
8554,NA,311,21,,correct,high school / college,100,1570373554623,NA,68,NA,blue,1,circle,female,NA,NA,NA,NA,Right,2330,space,grid,Sun Oct 06 2019 15:45:19 GMT+0100 (Hora de verão da Europa Ocidental),1570373119539,circle,circle,7.2514,1,1,reaction_main
8554,NA,269,21,,correct,high school / college,100,1570373554623,NA,68,NA,blue,1,square,female,NA,NA,NA,NA,Right,1620,space,grid,Sun Oct 06 2019 15:45:19 GMT+0100 (Hora de verão da Europa Ocidental),1570373119539,square,square,7.2514,1,2,reaction_main
8554,NA,317,21,,correct,high school / college,100,1570373554623,NA,68,NA,blue,1,square,female,NA,NA,NA,NA,Right,2460,space,grid,Sun Oct 06 2019 15:45:19 GMT+0100 (Hora de verão da Europa Ocidental),1570373119539,square,square,7.2514,1,3,reaction_main
8554,NA,325,21,,correct,high school / college,100,1570373554623,NA,68,NA,blue,1,square,female,NA,NA,NA,NA,Right,1580,space,grid,Sun Oct 06 2019 15:45:19 GMT+0100 (Hora de verão da Europa Ocidental),1570373119539,square,square,7.2514,1,4,reaction_main
8554,NA,240,21,,correct,high school / college,100,1570373554623,NA,68,NA,blue,1,circle,female,NA,NA,NA,NA,Right,1719,space,grid,Sun Oct 06 2019 15:45:19 GMT+0100 (Hora de verão da Europa Ocidental),1570373119539,circle,circle,7.2514,1,5,reaction_main
8554,NA,262,21,,correct,high school / college,100,1570373554623,NA,68,NA,blue,1,square,female,NA,NA,NA,NA,Right,1678,space,grid,Sun Oct 06 2019 15:45:19 GMT+0100 (Hora de verão da Europa Ocidental),1570373119539,square,square,7.2514,1,6,reaction_main
8554,NA,295,21,,correct,high school / college,100,1570373554623,NA,68,NA,blue,1,square,female,NA,NA,NA,NA,Right,2221,space,grid,Sun Oct 06 2019 15:45:19 GMT+0100 (Hora de verão da Europa Ocidental),1570373119539,square,square,7.2514,1,7,reaction_main
8554,NA,277,21,,correct,high school / college,100,1570373554623,NA,68,NA,blue,1,circle,female,NA,NA,NA,NA,Right,2183,space,grid,Sun Oct 06 2019 15:45:19 GMT+0100 (Hora de verão da Europa Ocidental),1570373119539,circle,circle,7.2514,1,8,reaction_main
8554,NA,288,21,,correct,high school / college,100,1570373554623,NA,68,NA,blue,1,square,female,NA,NA,NA,NA,Right,2052,space,grid,Sun Oct 06 2019 15:45:19 GMT+0100 (Hora de verão da Europa Ocidental),1570373119539,square,square,7.2514,1,9,reaction_main
8554,NA,309,21,,correct,high school / college,100,1570373554623,NA,68,NA,blue,1,circle,female,NA,NA,NA,NA,Right,1525,space,grid,Sun Oct 06 2019 15:45:19 GMT+0100 (Hora de verão da Europa Ocidental),1570373119539,circle,circle,7.2514,1,10,reaction_main
8554,NA,319,21,,correct,high school / college,100,1570373554623,NA,68,NA,blue,1,circle,female,NA,NA,NA,NA,Right,1969,space,grid,Sun Oct 06 2019 15:45:19 GMT+0100 (Hora de verão da Europa Ocidental),1570373119539,circle,circle,7.2514,1,11,reaction_main
8554,NA,296,21,,correct,high school / college,100,1570373554623,NA,68,NA,blue,1,square,female,NA,NA,NA,NA,Right,1597,space,grid,Sun Oct 06 2019 15:45:19 GMT+0100 (Hora de verão da Europa Ocidental),1570373119539,square,square,7.2514,1,12,reaction_main
8554,NA,244,21,,correct,high school / college,100,1570373554623,NA,68,NA,blue,1,square,female,NA,NA,NA,NA,Right,1964,space,grid,Sun Oct 06 2019 15:45:19 GMT+0100 (Hora de verão da Europa Ocidental),1570373119539,square,square,7.2514,1,13,reaction_main
8554,NA,305,21,,correct,high school / college,100,1570373554623,NA,68,NA,blue,1,circle,female,NA,NA,NA,NA,Right,2060,space,grid,Sun Oct 06 2019 15:45:19 GMT+0100 (Hora de verão da Europa Ocidental),1570373119539,circle,circle,7.2514,1,14,reaction_main
8554,NA,308,21,,correct,high school / college,100,1570373554623,NA,68,NA,blue,1,square,female,NA,NA,NA,NA,Right,1820,space,grid,Sun Oct 06 2019 15:45:19 GMT+0100 (Hora de verão da Europa Ocidental),1570373119539,square,square,7.2514,1,15,reaction_main
8554,NA,277,21,,correct,high school / college,100,1570373554623,NA,68,NA,blue,1,circle,female,NA,NA,NA,NA,Right,2042,space,grid,Sun Oct 06 2019 15:45:19 GMT+0100 (Hora de verão da Europa Ocidental),1570373119539,circle,circle,7.2514,1,16,reaction_main
8554,NA,301,21,,correct,high school / college,100,1570373554623,NA,68,NA,blue,1,circle,female,NA,NA,NA,NA,Right,1554,space,grid,Sun Oct 06 2019 15:45:19 GMT+0100 (Hora de verão da Europa Ocidental),1570373119539,circle,circle,7.2514,1,17,reaction_main
8554,NA,316,21,,correct,high school / college,100,1570373554623,NA,68,NA,blue,1,square,female,NA,NA,NA,NA,Right,2643,space,grid,Sun Oct 06 2019 15:45:19 GMT+0100 (Hora de verão da Europa Ocidental),1570373119539,square,square,7.2514,1,18,reaction_main
8554,NA,322,21,,correct,high school / college,100,1570373554623,NA,68,NA,blue,1,circle,female,NA,NA,NA,NA,Right,2529,space,grid,Sun Oct 06 2019 15:45:19 GMT+0100 (Hora de verão da Europa Ocidental),1570373119539,circle,circle,7.2514,1,19,reaction_main
8554,NA,308,21,,correct,high school / college,100,1570373554623,NA,68,NA,blue,1,circle,female,NA,NA,NA,NA,Right,1423,space,grid,Sun Oct 06 2019 15:45:19 GMT+0100 (Hora de verão da Europa Ocidental),1570373119539,circle,circle,7.2514,1,20,reaction_main
8554,"Press SPACE when you see a circle. Otherwise, just wait and do nothing.",2001,21,,correct,high school / college,100,1570373554623,NA,68,NA,blue,1,square,female,NA,NA,NA,NA,Right,2359,wait,grid,Sun Oct 06 2019 15:45:19 GMT+0100 (Hora de verão da Europa Ocidental),1570373119539,square,circle,7.2514,1,1,goNoGo_practice
8554,"Press SPACE when you see a circle. Otherwise, just wait and do nothing.",302,21,,correct,high school / college,100,1570373554623,NA,68,NA,blue,1,circle,female,NA,NA,NA,NA,Right,1551,space,grid,Sun Oct 06 2019 15:45:19 GMT+0100 (Hora de verão da Europa Ocidental),1570373119539,circle,circle,7.2514,1,2,goNoGo_practice
8554,"Press SPACE when you see a circle. Otherwise, just wait and do nothing.",2000,21,,correct,high school / college,100,1570373554623,NA,68,NA,blue,1,square,female,NA,NA,NA,NA,Right,1537,wait,grid,Sun Oct 06 2019 15:45:19 GMT+0100 (Hora de verão da Europa Ocidental),1570373119539,square,circle,7.2514,1,3,goNoGo_practice
8554,"Press SPACE when you see a circle. Otherwise, just wait and do nothing.",437,21,,correct,high school / college,100,1570373554623,NA,68,NA,blue,1,circle,female,NA,NA,NA,NA,Right,2010,space,grid,Sun Oct 06 2019 15:45:19 GMT+0100 (Hora de verão da Europa Ocidental),1570373119539,circle,circle,7.2514,1,4,goNoGo_practice
8554,"Press SPACE when you see a circle. Otherwise, just wait and do nothing.",2001,21,,correct,high school / college,100,1570373554623,NA,68,NA,blue,1,square,female,NA,NA,NA,NA,Right,2118,wait,grid,Sun Oct 06 2019 15:45:19 GMT+0100 (Hora de verão da Europa Ocidental),1570373119539,square,circle,7.2514,1,5,goNoGo_practice
8554,NA,354,21,,correct,high school / college,100,1570373554623,NA,68,NA,blue,1,circle,female,NA,NA,NA,NA,Right,2509,space,grid,Sun Oct 06 2019 15:45:19 GMT+0100 (Hora de verão da Europa Ocidental),1570373119539,circle,circle,7.2514,1,1,goNoGo_main
8554,NA,592,21,,correct,high school / college,100,1570373554623,NA,68,NA,blue,1,circle,female,NA,NA,NA,NA,Right,1381,space,grid,Sun Oct 06 2019 15:45:19 GMT+0100 (Hora de verão da Europa Ocidental),1570373119539,circle,circle,7.2514,1,2,goNoGo_main
8554,NA,2001,21,,correct,high school / college,100,1570373554623,NA,68,NA,blue,1,square,female,NA,NA,NA,NA,Right,1571,wait,grid,Sun Oct 06 2019 15:45:19 GMT+0100 (Hora de verão da Europa Ocidental),1570373119539,square,circle,7.2514,1,3,goNoGo_main
8554,NA,2003,21,,correct,high school / college,100,1570373554623,NA,68,NA,blue,1,square,female,NA,NA,NA,NA,Right,1587,wait,grid,Sun Oct 06 2019 15:45:19 GMT+0100 (Hora de verão da Europa Ocidental),1570373119539,square,circle,7.2514,1,4,goNoGo_main
8554,NA,2001,21,,correct,high school / college,100,1570373554623,NA,68,NA,blue,1,square,female,NA,NA,NA,NA,Right,2066,wait,grid,Sun Oct 06 2019 15:45:19 GMT+0100 (Hora de verão da Europa Ocidental),1570373119539,square,circle,7.2514,1,5,goNoGo_main
8554,NA,2014,21,,correct,high school / college,100,1570373554623,NA,68,NA,blue,1,square,female,NA,NA,NA,NA,Right,1546,wait,grid,Sun Oct 06 2019 15:45:19 GMT+0100 (Hora de verão da Europa Ocidental),1570373119539,square,circle,7.2514,1,6,goNoGo_main
8554,NA,354,21,,correct,high school / college,100,1570373554623,NA,68,NA,blue,1,circle,female,NA,NA,NA,NA,Right,1439,space,grid,Sun Oct 06 2019 15:45:19 GMT+0100 (Hora de verão da Europa Ocidental),1570373119539,circle,circle,7.2514,1,7,goNoGo_main
8554,NA,2001,21,,correct,high school / college,100,1570373554623,NA,68,NA,blue,1,square,female,NA,NA,NA,NA,Right,2174,wait,grid,Sun Oct 06 2019 15:45:19 GMT+0100 (Hora de verão da Europa Ocidental),1570373119539,square,circle,7.2514,1,8,goNoGo_main
8554,NA,2006,21,,correct,high school / college,100,1570373554623,NA,68,NA,blue,1,square,female,NA,NA,NA,NA,Right,1944,wait,grid,Sun Oct 06 2019 15:45:19 GMT+0100 (Hora de verão da Europa Ocidental),1570373119539,square,circle,7.2514,1,9,goNoGo_main
8554,NA,341,21,,correct,high school / college,100,1570373554623,NA,68,NA,blue,1,circle,female,NA,NA,NA,NA,Right,1560,space,grid,Sun Oct 06 2019 15:45:19 GMT+0100 (Hora de verão da Europa Ocidental),1570373119539,circle,circle,7.2514,1,10,goNoGo_main
8554,NA,2001,21,,correct,high school / college,100,1570373554623,NA,68,NA,blue,1,square,female,NA,NA,NA,NA,Right,1584,wait,grid,Sun Oct 06 2019 15:45:19 GMT+0100 (Hora de verão da Europa Ocidental),1570373119539,square,circle,7.2514,1,11,goNoGo_main
8554,NA,418,21,,correct,high school / college,100,1570373554623,NA,68,NA,blue,1,circle,female,NA,NA,NA,NA,Right,1587,space,grid,Sun Oct 06 2019 15:45:19 GMT+0100 (Hora de verão da Europa Ocidental),1570373119539,circle,circle,7.2514,1,12,goNoGo_main
8554,NA,354,21,,correct,high school / college,100,1570373554623,NA,68,NA,blue,1,circle,female,NA,NA,NA,NA,Right,2395,space,grid,Sun Oct 06 2019 15:45:19 GMT+0100 (Hora de verão da Europa Ocidental),1570373119539,circle,circle,7.2514,1,13,goNoGo_main
8554,NA,351,21,,correct,high school / college,100,1570373554623,NA,68,NA,blue,1,circle,female,NA,NA,NA,NA,Right,1624,space,grid,Sun Oct 06 2019 15:45:19 GMT+0100 (Hora de verão da Europa Ocidental),1570373119539,circle,circle,7.2514,1,14,goNoGo_main
8554,NA,369,21,,correct,high school / college,100,1570373554623,NA,68,NA,blue,1,circle,female,NA,NA,NA,NA,Right,1479,space,grid,Sun Oct 06 2019 15:45:19 GMT+0100 (Hora de verão da Europa Ocidental),1570373119539,circle,circle,7.2514,1,15,goNoGo_main
8554,NA,2001,21,,correct,high school / college,100,1570373554623,NA,68,NA,blue,1,square,female,NA,NA,NA,NA,Right,1985,wait,grid,Sun Oct 06 2019 15:45:19 GMT+0100 (Hora de verão da Europa Ocidental),1570373119539,square,circle,7.2514,1,16,goNoGo_main
8554,NA,2002,21,,correct,high school / college,100,1570373554623,NA,68,NA,blue,1,square,female,NA,NA,NA,NA,Right,2461,wait,grid,Sun Oct 06 2019 15:45:19 GMT+0100 (Hora de verão da Europa Ocidental),1570373119539,square,circle,7.2514,1,17,goNoGo_main
8554,NA,446,21,,correct,high school / college,100,1570373554623,NA,68,NA,blue,1,circle,female,NA,NA,NA,NA,Right,1777,space,grid,Sun Oct 06 2019 15:45:19 GMT+0100 (Hora de verão da Europa Ocidental),1570373119539,circle,circle,7.2514,1,18,goNoGo_main
8554,NA,598,21,,correct,high school / college,100,1570373554623,NA,68,NA,blue,1,circle,female,NA,NA,NA,NA,Right,1964,space,grid,Sun Oct 06 2019 15:45:19 GMT+0100 (Hora de verão da Europa Ocidental),1570373119539,circle,circle,7.2514,1,19,goNoGo_main
8554,NA,2000,21,,correct,high school / college,100,1570373554623,NA,68,NA,blue,1,square,female,NA,NA,NA,NA,Right,1615,wait,grid,Sun Oct 06 2019 15:45:19 GMT+0100 (Hora de verão da Europa Ocidental),1570373119539,square,circle,7.2514,1,20,goNoGo_main
8554,NA,1481,21,,correct,high school / college,100,1570373554623,circle,68,square,blue,1,circle,female,circle,f,j,j,Right,2090,NA,grid,Sun Oct 06 2019 15:45:19 GMT+0100 (Hora de verão da Europa Ocidental),1570373119539,NA,NA,7.2514,1,1,discrimination_practice
8554,NA,778,21,,correct,high school / college,100,1570373554623,square,68,square,blue,1,square,female,circle,f,j,f,Right,1587,NA,grid,Sun Oct 06 2019 15:45:19 GMT+0100 (Hora de verão da Europa Ocidental),1570373119539,NA,NA,7.2514,1,2,discrimination_practice
8554,NA,422,21,,correct,high school / college,100,1570373554623,circle,68,square,blue,1,circle,female,circle,f,j,j,Right,2381,NA,grid,Sun Oct 06 2019 15:45:19 GMT+0100 (Hora de verão da Europa Ocidental),1570373119539,NA,NA,7.2514,1,3,discrimination_practice
8554,NA,490,21,,incorrect,high school / college,100,1570373554623,circle,68,square,blue,1,circle,female,circle,f,j,f,Right,1663,NA,grid,Sun Oct 06 2019 15:45:19 GMT+0100 (Hora de verão da Europa Ocidental),1570373119539,NA,NA,7.2514,1,4,discrimination_practice
8554,NA,1418,21,,correct,high school / college,100,1570373554623,square,68,square,blue,1,square,female,circle,f,j,f,Right,2578,NA,grid,Sun Oct 06 2019 15:45:19 GMT+0100 (Hora de verão da Europa Ocidental),1570373119539,NA,NA,7.2514,1,5,discrimination_practice
8554,NA,350,21,,correct,high school / college,100,1570373554623,circle,68,square,blue,1,circle,female,circle,f,j,j,Right,2396,NA,grid,Sun Oct 06 2019 15:45:19 GMT+0100 (Hora de verão da Europa Ocidental),1570373119539,NA,NA,7.2514,1,1,discrimination_main
8554,NA,339,21,,correct,high school / college,100,1570373554623,circle,68,square,blue,1,circle,female,circle,f,j,j,Right,2407,NA,grid,Sun Oct 06 2019 15:45:19 GMT+0100 (Hora de verão da Europa Ocidental),1570373119539,NA,NA,7.2514,1,2,discrimination_main
8554,NA,387,21,,correct,high school / college,100,1570373554623,circle,68,square,blue,1,circle,female,circle,f,j,j,Right,1692,NA,grid,Sun Oct 06 2019 15:45:19 GMT+0100 (Hora de verão da Europa Ocidental),1570373119539,NA,NA,7.2514,1,3,discrimination_main
8554,NA,391,21,,correct,high school / college,100,1570373554623,square,68,square,blue,1,square,female,circle,f,j,f,Right,1892,NA,grid,Sun Oct 06 2019 15:45:19 GMT+0100 (Hora de verão da Europa Ocidental),1570373119539,NA,NA,7.2514,1,4,discrimination_main
8554,NA,319,21,,correct,high school / college,100,1570373554623,circle,68,square,blue,1,circle,female,circle,f,j,j,Right,1938,NA,grid,Sun Oct 06 2019 15:45:19 GMT+0100 (Hora de verão da Europa Ocidental),1570373119539,NA,NA,7.2514,1,5,discrimination_main
8554,NA,414,21,,correct,high school / college,100,1570373554623,square,68,square,blue,1,square,female,circle,f,j,f,Right,1780,NA,grid,Sun Oct 06 2019 15:45:19 GMT+0100 (Hora de verão da Europa Ocidental),1570373119539,NA,NA,7.2514,1,6,discrimination_main
8554,NA,471,21,,correct,high school / college,100,1570373554623,circle,68,square,blue,1,circle,female,circle,f,j,j,Right,2125,NA,grid,Sun Oct 06 2019 15:45:19 GMT+0100 (Hora de verão da Europa Ocidental),1570373119539,NA,NA,7.2514,1,7,discrimination_main
8554,NA,380,21,,correct,high school / college,100,1570373554623,square,68,square,blue,1,square,female,circle,f,j,f,Right,1474,NA,grid,Sun Oct 06 2019 15:45:19 GMT+0100 (Hora de verão da Europa Ocidental),1570373119539,NA,NA,7.2514,1,8,discrimination_main
8554,NA,344,21,,correct,high school / college,100,1570373554623,circle,68,square,blue,1,circle,female,circle,f,j,j,Right,1735,NA,grid,Sun Oct 06 2019 15:45:19 GMT+0100 (Hora de verão da Europa Ocidental),1570373119539,NA,NA,7.2514,1,9,discrimination_main
8554,NA,420,21,,correct,high school / college,100,1570373554623,square,68,square,blue,1,square,female,circle,f,j,f,Right,2084,NA,grid,Sun Oct 06 2019 15:45:19 GMT+0100 (Hora de verão da Europa Ocidental),1570373119539,NA,NA,7.2514,1,10,discrimination_main
8554,NA,413,21,,correct,high school / college,100,1570373554623,square,68,square,blue,1,square,female,circle,f,j,f,Right,2381,NA,grid,Sun Oct 06 2019 15:45:19 GMT+0100 (Hora de verão da Europa Ocidental),1570373119539,NA,NA,7.2514,1,11,discrimination_main
8554,NA,403,21,,correct,high school / college,100,1570373554623,circle,68,square,blue,1,circle,female,circle,f,j,j,Right,1951,NA,grid,Sun Oct 06 2019 15:45:19 GMT+0100 (Hora de verão da Europa Ocidental),1570373119539,NA,NA,7.2514,1,12,discrimination_main
8554,NA,537,21,,correct,high school / college,100,1570373554623,square,68,square,blue,1,square,female,circle,f,j,f,Right,1711,NA,grid,Sun Oct 06 2019 15:45:19 GMT+0100 (Hora de verão da Europa Ocidental),1570373119539,NA,NA,7.2514,1,13,discrimination_main
8554,NA,567,21,,correct,high school / college,100,1570373554623,circle,68,square,blue,1,circle,female,circle,f,j,j,Right,1263,NA,grid,Sun Oct 06 2019 15:45:19 GMT+0100 (Hora de verão da Europa Ocidental),1570373119539,NA,NA,7.2514,1,14,discrimination_main
8554,NA,487,21,,correct,high school / college,100,1570373554623,square,68,square,blue,1,square,female,circle,f,j,f,Right,1963,NA,grid,Sun Oct 06 2019 15:45:19 GMT+0100 (Hora de verão da Europa Ocidental),1570373119539,NA,NA,7.2514,1,15,discrimination_main
8554,NA,439,21,,correct,high school / college,100,1570373554623,circle,68,square,blue,1,circle,female,circle,f,j,j,Right,1915,NA,grid,Sun Oct 06 2019 15:45:19 GMT+0100 (Hora de verão da Europa Ocidental),1570373119539,NA,NA,7.2514,1,16,discrimination_main
8554,NA,403,21,,correct,high school / college,100,1570373554623,square,68,square,blue,1,square,female,circle,f,j,f,Right,2307,NA,grid,Sun Oct 06 2019 15:45:19 GMT+0100 (Hora de verão da Europa Ocidental),1570373119539,NA,NA,7.2514,1,17,discrimination_main
8554,NA,422,21,,correct,high school / college,100,1570373554623,square,68,square,blue,1,square,female,circle,f,j,f,Right,2007,NA,grid,Sun Oct 06 2019 15:45:19 GMT+0100 (Hora de verão da Europa Ocidental),1570373119539,NA,NA,7.2514,1,18,discrimination_main
8554,NA,379,21,,correct,high school / college,100,1570373554623,square,68,square,blue,1,square,female,circle,f,j,f,Right,2207,NA,grid,Sun Oct 06 2019 15:45:19 GMT+0100 (Hora de verão da Europa Ocidental),1570373119539,NA,NA,7.2514,1,19,discrimination_main
8554,NA,454,21,,correct,high school / college,100,1570373554623,circle,68,square,blue,1,circle,female,circle,f,j,j,Right,2581,NA,grid,Sun Oct 06 2019 15:45:19 GMT+0100 (Hora de verão da Europa Ocidental),1570373119539,NA,NA,7.2514,1,20,discrimination_main
8553,Press SPACE when you see a shape on the screen,354,21,,correct,university,100,1570373382659,NA,68,NA,blue,1,circle,female,NA,NA,NA,NA,Right,1802,space,grid,Sun Oct 06 2019 15:45:15 GMT+0100 (British Summer Time),1570373115732,circle,circle,4.44878333333333,1,1,reaction_practice
8553,Press SPACE when you see a shape on the screen,256,21,,correct,university,100,1570373382659,NA,68,NA,blue,1,square,female,NA,NA,NA,NA,Right,2464,space,grid,Sun Oct 06 2019 15:45:15 GMT+0100 (British Summer Time),1570373115732,square,square,4.44878333333333,1,2,reaction_practice
8553,Press SPACE when you see a shape on the screen,519,21,,correct,university,100,1570373382659,NA,68,NA,blue,1,circle,female,NA,NA,NA,NA,Right,2413,space,grid,Sun Oct 06 2019 15:45:15 GMT+0100 (British Summer Time),1570373115732,circle,circle,4.44878333333333,1,3,reaction_practice
8553,Press SPACE when you see a shape on the screen,1194,21,,correct,university,100,1570373382659,NA,68,NA,blue,1,square,female,NA,NA,NA,NA,Right,1732,space,grid,Sun Oct 06 2019 15:45:15 GMT+0100 (British Summer Time),1570373115732,square,square,4.44878333333333,1,4,reaction_practice
8553,Press SPACE when you see a shape on the screen,443,21,,correct,university,100,1570373382659,NA,68,NA,blue,1,square,female,NA,NA,NA,NA,Right,1591,space,grid,Sun Oct 06 2019 15:45:15 GMT+0100 (British Summer Time),1570373115732,square,square,4.44878333333333,1,5,reaction_practice
8553,NA,273,21,,correct,university,100,1570373382659,NA,68,NA,blue,1,circle,female,NA,NA,NA,NA,Right,2187,space,grid,Sun Oct 06 2019 15:45:15 GMT+0100 (British Summer Time),1570373115732,circle,circle,4.44878333333333,1,1,reaction_main
8553,NA,252,21,,correct,university,100,1570373382659,NA,68,NA,blue,1,circle,female,NA,NA,NA,NA,Right,1881,space,grid,Sun Oct 06 2019 15:45:15 GMT+0100 (British Summer Time),1570373115732,circle,circle,4.44878333333333,1,2,reaction_main
8553,NA,274,21,,correct,university,100,1570373382659,NA,68,NA,blue,1,square,female,NA,NA,NA,NA,Right,1943,space,grid,Sun Oct 06 2019 15:45:15 GMT+0100 (British Summer Time),1570373115732,square,square,4.44878333333333,1,3,reaction_main
8553,NA,289,21,,correct,university,100,1570373382659,NA,68,NA,blue,1,square,female,NA,NA,NA,NA,Right,1370,space,grid,Sun Oct 06 2019 15:45:15 GMT+0100 (British Summer Time),1570373115732,square,square,4.44878333333333,1,4,reaction_main
8553,NA,245,21,,correct,university,100,1570373382659,NA,68,NA,blue,1,circle,female,NA,NA,NA,NA,Right,1444,space,grid,Sun Oct 06 2019 15:45:15 GMT+0100 (British Summer Time),1570373115732,circle,circle,4.44878333333333,1,5,reaction_main
8553,NA,408,21,,correct,university,100,1570373382659,NA,68,NA,blue,1,circle,female,NA,NA,NA,NA,Right,1645,space,grid,Sun Oct 06 2019 15:45:15 GMT+0100 (British Summer Time),1570373115732,circle,circle,4.44878333333333,1,6,reaction_main
8553,NA,273,21,,correct,university,100,1570373382659,NA,68,NA,blue,1,circle,female,NA,NA,NA,NA,Right,2697,space,grid,Sun Oct 06 2019 15:45:15 GMT+0100 (British Summer Time),1570373115732,circle,circle,4.44878333333333,1,7,reaction_main
8553,NA,322,21,,correct,university,100,1570373382659,NA,68,NA,blue,1,circle,female,NA,NA,NA,NA,Right,2405,space,grid,Sun Oct 06 2019 15:45:15 GMT+0100 (British Summer Time),1570373115732,circle,circle,4.44878333333333,1,8,reaction_main
8553,NA,307,21,,correct,university,100,1570373382659,NA,68,NA,blue,1,square,female,NA,NA,NA,NA,Right,2404,space,grid,Sun Oct 06 2019 15:45:15 GMT+0100 (British Summer Time),1570373115732,square,square,4.44878333333333,1,9,reaction_main
8553,NA,268,21,,correct,university,100,1570373382659,NA,68,NA,blue,1,circle,female,NA,NA,NA,NA,Right,2090,space,grid,Sun Oct 06 2019 15:45:15 GMT+0100 (British Summer Time),1570373115732,circle,circle,4.44878333333333,1,10,reaction_main
8553,NA,380,21,,correct,university,100,1570373382659,NA,68,NA,blue,1,square,female,NA,NA,NA,NA,Right,2184,space,grid,Sun Oct 06 2019 15:45:15 GMT+0100 (British Summer Time),1570373115732,square,square,4.44878333333333,1,11,reaction_main
8553,NA,314,21,,correct,university,100,1570373382659,NA,68,NA,blue,1,circle,female,NA,NA,NA,NA,Right,1940,space,grid,Sun Oct 06 2019 15:45:15 GMT+0100 (British Summer Time),1570373115732,circle,circle,4.44878333333333,1,12,reaction_main
8553,NA,284,21,,correct,university,100,1570373382659,NA,68,NA,blue,1,square,female,NA,NA,NA,NA,Right,2369,space,grid,Sun Oct 06 2019 15:45:15 GMT+0100 (British Summer Time),1570373115732,square,square,4.44878333333333,1,13,reaction_main
8553,NA,305,21,,correct,university,100,1570373382659,NA,68,NA,blue,1,circle,female,NA,NA,NA,NA,Right,1783,space,grid,Sun Oct 06 2019 15:45:15 GMT+0100 (British Summer Time),1570373115732,circle,circle,4.44878333333333,1,14,reaction_main
8553,NA,295,21,,correct,university,100,1570373382659,NA,68,NA,blue,1,square,female,NA,NA,NA,NA,Right,2159,space,grid,Sun Oct 06 2019 15:45:15 GMT+0100 (British Summer Time),1570373115732,square,square,4.44878333333333,1,15,reaction_main
8553,NA,242,21,,correct,university,100,1570373382659,NA,68,NA,blue,1,square,female,NA,NA,NA,NA,Right,2485,space,grid,Sun Oct 06 2019 15:45:15 GMT+0100 (British Summer Time),1570373115732,square,square,4.44878333333333,1,16,reaction_main
8553,NA,301,21,,correct,university,100,1570373382659,NA,68,NA,blue,1,circle,female,NA,NA,NA,NA,Right,2265,space,grid,Sun Oct 06 2019 15:45:15 GMT+0100 (British Summer Time),1570373115732,circle,circle,4.44878333333333,1,17,reaction_main
8553,NA,289,21,,correct,university,100,1570373382659,NA,68,NA,blue,1,square,female,NA,NA,NA,NA,Right,2259,space,grid,Sun Oct 06 2019 15:45:15 GMT+0100 (British Summer Time),1570373115732,square,square,4.44878333333333,1,18,reaction_main
8553,NA,311,21,,correct,university,100,1570373382659,NA,68,NA,blue,1,square,female,NA,NA,NA,NA,Right,2184,space,grid,Sun Oct 06 2019 15:45:15 GMT+0100 (British Summer Time),1570373115732,square,square,4.44878333333333,1,19,reaction_main
8553,NA,279,21,,correct,university,100,1570373382659,NA,68,NA,blue,1,square,female,NA,NA,NA,NA,Right,2559,space,grid,Sun Oct 06 2019 15:45:15 GMT+0100 (British Summer Time),1570373115732,square,square,4.44878333333333,1,20,reaction_main
8553,"Press SPACE when you see a circle. Otherwise, just wait and do nothing.",2002,21,,correct,university,100,1570373382659,NA,68,NA,blue,1,square,female,NA,NA,NA,NA,Right,1284,wait,grid,Sun Oct 06 2019 15:45:15 GMT+0100 (British Summer Time),1570373115732,square,circle,4.44878333333333,1,1,goNoGo_practice
8553,"Press SPACE when you see a circle. Otherwise, just wait and do nothing.",338,21,,correct,university,100,1570373382659,NA,68,NA,blue,1,circle,female,NA,NA,NA,NA,Right,2218,space,grid,Sun Oct 06 2019 15:45:15 GMT+0100 (British Summer Time),1570373115732,circle,circle,4.44878333333333,1,2,goNoGo_practice
8553,"Press SPACE when you see a circle. Otherwise, just wait and do nothing.",2001,21,,correct,university,100,1570373382659,NA,68,NA,blue,1,square,female,NA,NA,NA,NA,Right,2015,wait,grid,Sun Oct 06 2019 15:45:15 GMT+0100 (British Summer Time),1570373115732,square,circle,4.44878333333333,1,3,goNoGo_practice
8553,"Press SPACE when you see a circle. Otherwise, just wait and do nothing.",323,21,,correct,university,100,1570373382659,NA,68,NA,blue,1,circle,female,NA,NA,NA,NA,Right,2341,space,grid,Sun Oct 06 2019 15:45:15 GMT+0100 (British Summer Time),1570373115732,circle,circle,4.44878333333333,1,4,goNoGo_practice
8553,"Press SPACE when you see a circle. Otherwise, just wait and do nothing.",318,21,,incorrect,university,100,1570373382659,NA,68,NA,blue,1,square,female,NA,NA,NA,NA,Right,2244,space,grid,Sun Oct 06 2019 15:45:15 GMT+0100 (British Summer Time),1570373115732,square,circle,4.44878333333333,1,5,goNoGo_practice
8553,NA,429,21,,correct,university,100,1570373382659,NA,68,NA,blue,1,circle,female,NA,NA,NA,NA,Right,1777,space,grid,Sun Oct 06 2019 15:45:15 GMT+0100 (British Summer Time),1570373115732,circle,circle,4.44878333333333,1,1,goNoGo_main
8553,NA,2003,21,,correct,university,100,1570373382659,NA,68,NA,blue,1,square,female,NA,NA,NA,NA,Right,1609,wait,grid,Sun Oct 06 2019 15:45:15 GMT+0100 (British Summer Time),1570373115732,square,circle,4.44878333333333,1,2,goNoGo_main
8553,NA,2006,21,,correct,university,100,1570373382659,NA,68,NA,blue,1,square,female,NA,NA,NA,NA,Right,2098,wait,grid,Sun Oct 06 2019 15:45:15 GMT+0100 (British Summer Time),1570373115732,square,circle,4.44878333333333,1,3,goNoGo_main
8553,NA,441,21,,correct,university,100,1570373382659,NA,68,NA,blue,1,circle,female,NA,NA,NA,NA,Right,1851,space,grid,Sun Oct 06 2019 15:45:15 GMT+0100 (British Summer Time),1570373115732,circle,circle,4.44878333333333,1,4,goNoGo_main
8553,NA,490,21,,correct,university,100,1570373382659,NA,68,NA,blue,1,circle,female,NA,NA,NA,NA,Right,1902,space,grid,Sun Oct 06 2019 15:45:15 GMT+0100 (British Summer Time),1570373115732,circle,circle,4.44878333333333,1,5,goNoGo_main
8553,NA,2005,21,,correct,university,100,1570373382659,NA,68,NA,blue,1,square,female,NA,NA,NA,NA,Right,2369,wait,grid,Sun Oct 06 2019 15:45:15 GMT+0100 (British Summer Time),1570373115732,square,circle,4.44878333333333,1,6,goNoGo_main
8553,NA,353,21,,correct,university,100,1570373382659,NA,68,NA,blue,1,circle,female,NA,NA,NA,NA,Right,2269,space,grid,Sun Oct 06 2019 15:45:15 GMT+0100 (British Summer Time),1570373115732,circle,circle,4.44878333333333,1,7,goNoGo_main
8553,NA,423,21,,correct,university,100,1570373382659,NA,68,NA,blue,1,circle,female,NA,NA,NA,NA,Right,2349,space,grid,Sun Oct 06 2019 15:45:15 GMT+0100 (British Summer Time),1570373115732,circle,circle,4.44878333333333,1,8,goNoGo_main
8553,NA,2006,21,,correct,university,100,1570373382659,NA,68,NA,blue,1,square,female,NA,NA,NA,NA,Right,2457,wait,grid,Sun Oct 06 2019 15:45:15 GMT+0100 (British Summer Time),1570373115732,square,circle,4.44878333333333,1,9,goNoGo_main
8553,NA,374,21,,correct,university,100,1570373382659,NA,68,NA,blue,1,circle,female,NA,NA,NA,NA,Right,1765,space,grid,Sun Oct 06 2019 15:45:15 GMT+0100 (British Summer Time),1570373115732,circle,circle,4.44878333333333,1,10,goNoGo_main
8553,NA,473,21,,correct,university,100,1570373382659,NA,68,NA,blue,1,circle,female,NA,NA,NA,NA,Right,2118,space,grid,Sun Oct 06 2019 15:45:15 GMT+0100 (British Summer Time),1570373115732,circle,circle,4.44878333333333,1,11,goNoGo_main
8553,NA,2001,21,,correct,university,100,1570373382659,NA,68,NA,blue,1,square,female,NA,NA,NA,NA,Right,1970,wait,grid,Sun Oct 06 2019 15:45:15 GMT+0100 (British Summer Time),1570373115732,square,circle,4.44878333333333,1,12,goNoGo_main
8553,NA,2002,21,,correct,university,100,1570373382659,NA,68,NA,blue,1,square,female,NA,NA,NA,NA,Right,1587,wait,grid,Sun Oct 06 2019 15:45:15 GMT+0100 (British Summer Time),1570373115732,square,circle,4.44878333333333,1,13,goNoGo_main
8553,NA,2005,21,,correct,university,100,1570373382659,NA,68,NA,blue,1,square,female,NA,NA,NA,NA,Right,2221,wait,grid,Sun Oct 06 2019 15:45:15 GMT+0100 (British Summer Time),1570373115732,square,circle,4.44878333333333,1,14,goNoGo_main
8553,NA,2002,21,,correct,university,100,1570373382659,NA,68,NA,blue,1,square,female,NA,NA,NA,NA,Right,2265,wait,grid,Sun Oct 06 2019 15:45:15 GMT+0100 (British Summer Time),1570373115732,square,circle,4.44878333333333,1,15,goNoGo_main
8553,NA,397,21,,correct,university,100,1570373382659,NA,68,NA,blue,1,circle,female,NA,NA,NA,NA,Right,1878,space,grid,Sun Oct 06 2019 15:45:15 GMT+0100 (British Summer Time),1570373115732,circle,circle,4.44878333333333,1,16,goNoGo_main
8553,NA,2001,21,,correct,university,100,1570373382659,NA,68,NA,blue,1,square,female,NA,NA,NA,NA,Right,1784,wait,grid,Sun Oct 06 2019 15:45:15 GMT+0100 (British Summer Time),1570373115732,square,circle,4.44878333333333,1,17,goNoGo_main
8553,NA,376,21,,correct,university,100,1570373382659,NA,68,NA,blue,1,circle,female,NA,NA,NA,NA,Right,2384,space,grid,Sun Oct 06 2019 15:45:15 GMT+0100 (British Summer Time),1570373115732,circle,circle,4.44878333333333,1,18,goNoGo_main
8553,NA,520,21,,correct,university,100,1570373382659,NA,68,NA,blue,1,circle,female,NA,NA,NA,NA,Right,1413,space,grid,Sun Oct 06 2019 15:45:15 GMT+0100 (British Summer Time),1570373115732,circle,circle,4.44878333333333,1,19,goNoGo_main
8553,NA,2006,21,,correct,university,100,1570373382659,NA,68,NA,blue,1,square,female,NA,NA,NA,NA,Right,2243,wait,grid,Sun Oct 06 2019 15:45:15 GMT+0100 (British Summer Time),1570373115732,square,circle,4.44878333333333,1,20,goNoGo_main
8553,NA,400,21,,correct,university,100,1570373382659,square,68,square,blue,1,square,female,circle,f,j,f,Right,1864,NA,grid,Sun Oct 06 2019 15:45:15 GMT+0100 (British Summer Time),1570373115732,NA,NA,4.44878333333333,1,1,discrimination_practice
8553,NA,402,21,,correct,university,100,1570373382659,circle,68,square,blue,1,circle,female,circle,f,j,j,Right,2161,NA,grid,Sun Oct 06 2019 15:45:15 GMT+0100 (British Summer Time),1570373115732,NA,NA,4.44878333333333,1,2,discrimination_practice
8553,NA,353,21,,correct,university,100,1570373382659,square,68,square,blue,1,square,female,circle,f,j,f,Right,2374,NA,grid,Sun Oct 06 2019 15:45:15 GMT+0100 (British Summer Time),1570373115732,NA,NA,4.44878333333333,1,3,discrimination_practice
8553,NA,406,21,,correct,university,100,1570373382659,circle,68,square,blue,1,circle,female,circle,f,j,j,Right,1690,NA,grid,Sun Oct 06 2019 15:45:15 GMT+0100 (British Summer Time),1570373115732,NA,NA,4.44878333333333,1,4,discrimination_practice
8553,NA,448,21,,correct,university,100,1570373382659,square,68,square,blue,1,square,female,circle,f,j,f,Right,1674,NA,grid,Sun Oct 06 2019 15:45:15 GMT+0100 (British Summer Time),1570373115732,NA,NA,4.44878333333333,1,5,discrimination_practice
8553,NA,504,21,,correct,university,100,1570373382659,square,68,square,blue,1,square,female,circle,f,j,f,Right,2157,NA,grid,Sun Oct 06 2019 15:45:15 GMT+0100 (British Summer Time),1570373115732,NA,NA,4.44878333333333,1,1,discrimination_main
8553,NA,496,21,,incorrect,university,100,1570373382659,circle,68,square,blue,1,circle,female,circle,f,j,f,Right,2580,NA,grid,Sun Oct 06 2019 15:45:15 GMT+0100 (British Summer Time),1570373115732,NA,NA,4.44878333333333,1,2,discrimination_main
8553,NA,516,21,,correct,university,100,1570373382659,square,68,square,blue,1,square,female,circle,f,j,f,Right,1996,NA,grid,Sun Oct 06 2019 15:45:15 GMT+0100 (British Summer Time),1570373115732,NA,NA,4.44878333333333,1,3,discrimination_main
8553,NA,533,21,,correct,university,100,1570373382659,square,68,square,blue,1,square,female,circle,f,j,f,Right,2156,NA,grid,Sun Oct 06 2019 15:45:15 GMT+0100 (British Summer Time),1570373115732,NA,NA,4.44878333333333,1,4,discrimination_main
8553,NA,402,21,,correct,university,100,1570373382659,square,68,square,blue,1,square,female,circle,f,j,f,Right,2294,NA,grid,Sun Oct 06 2019 15:45:15 GMT+0100 (British Summer Time),1570373115732,NA,NA,4.44878333333333,1,5,discrimination_main
8553,NA,395,21,,correct,university,100,1570373382659,square,68,square,blue,1,square,female,circle,f,j,f,Right,1808,NA,grid,Sun Oct 06 2019 15:45:15 GMT+0100 (British Summer Time),1570373115732,NA,NA,4.44878333333333,1,6,discrimination_main
8553,NA,346,21,,correct,university,100,1570373382659,circle,68,square,blue,1,circle,female,circle,f,j,j,Right,2535,NA,grid,Sun Oct 06 2019 15:45:15 GMT+0100 (British Summer Time),1570373115732,NA,NA,4.44878333333333,1,7,discrimination_main
8553,NA,365,21,,correct,university,100,1570373382659,circle,68,square,blue,1,circle,female,circle,f,j,j,Right,2543,NA,grid,Sun Oct 06 2019 15:45:15 GMT+0100 (British Summer Time),1570373115732,NA,NA,4.44878333333333,1,8,discrimination_main
8553,NA,449,21,,correct,university,100,1570373382659,circle,68,square,blue,1,circle,female,circle,f,j,j,Right,2588,NA,grid,Sun Oct 06 2019 15:45:15 GMT+0100 (British Summer Time),1570373115732,NA,NA,4.44878333333333,1,9,discrimination_main
8553,NA,647,21,,correct,university,100,1570373382659,square,68,square,blue,1,square,female,circle,f,j,f,Right,1832,NA,grid,Sun Oct 06 2019 15:45:15 GMT+0100 (British Summer Time),1570373115732,NA,NA,4.44878333333333,1,10,discrimination_main
8553,NA,460,21,,correct,university,100,1570373382659,circle,68,square,blue,1,circle,female,circle,f,j,j,Right,1216,NA,grid,Sun Oct 06 2019 15:45:15 GMT+0100 (British Summer Time),1570373115732,NA,NA,4.44878333333333,1,11,discrimination_main
8553,NA,445,21,,correct,university,100,1570373382659,circle,68,square,blue,1,circle,female,circle,f,j,j,Right,2676,NA,grid,Sun Oct 06 2019 15:45:15 GMT+0100 (British Summer Time),1570373115732,NA,NA,4.44878333333333,1,12,discrimination_main
8553,NA,527,21,,correct,university,100,1570373382659,square,68,square,blue,1,square,female,circle,f,j,f,Right,1240,NA,grid,Sun Oct 06 2019 15:45:15 GMT+0100 (British Summer Time),1570373115732,NA,NA,4.44878333333333,1,13,discrimination_main
8553,NA,482,21,,correct,university,100,1570373382659,square,68,square,blue,1,square,female,circle,f,j,f,Right,1680,NA,grid,Sun Oct 06 2019 15:45:15 GMT+0100 (British Summer Time),1570373115732,NA,NA,4.44878333333333,1,14,discrimination_main
8553,NA,437,21,,correct,university,100,1570373382659,circle,68,square,blue,1,circle,female,circle,f,j,j,Right,2294,NA,grid,Sun Oct 06 2019 15:45:15 GMT+0100 (British Summer Time),1570373115732,NA,NA,4.44878333333333,1,15,discrimination_main
8553,NA,566,21,,correct,university,100,1570373382659,square,68,square,blue,1,square,female,circle,f,j,f,Right,1498,NA,grid,Sun Oct 06 2019 15:45:15 GMT+0100 (British Summer Time),1570373115732,NA,NA,4.44878333333333,1,16,discrimination_main
8553,NA,537,21,,correct,university,100,1570373382659,circle,68,square,blue,1,circle,female,circle,f,j,j,Right,1709,NA,grid,Sun Oct 06 2019 15:45:15 GMT+0100 (British Summer Time),1570373115732,NA,NA,4.44878333333333,1,17,discrimination_main
8553,NA,471,21,,correct,university,100,1570373382659,square,68,square,blue,1,square,female,circle,f,j,f,Right,2095,NA,grid,Sun Oct 06 2019 15:45:15 GMT+0100 (British Summer Time),1570373115732,NA,NA,4.44878333333333,1,18,discrimination_main
8553,NA,458,21,,correct,university,100,1570373382659,circle,68,square,blue,1,circle,female,circle,f,j,j,Right,1402,NA,grid,Sun Oct 06 2019 15:45:15 GMT+0100 (British Summer Time),1570373115732,NA,NA,4.44878333333333,1,19,discrimination_main
8553,NA,432,21,,correct,university,100,1570373382659,circle,68,square,blue,1,circle,female,circle,f,j,j,Right,2556,NA,grid,Sun Oct 06 2019 15:45:15 GMT+0100 (British Summer Time),1570373115732,NA,NA,4.44878333333333,1,20,discrimination_main
8552,Press SPACE when you see a shape on the screen,310,21,,correct,university,100,1570371792781,NA,68,NA,blue,1,square,male,NA,NA,NA,NA,Right,1857,space,grid,Sun Oct 06 2019 14:57:38 GMT+0100 (British Summer Time),1570370258586,square,square,25.5699166666667,1,1,reaction_practice
8552,Press SPACE when you see a shape on the screen,313,21,,correct,university,100,1570371792781,NA,68,NA,blue,1,circle,male,NA,NA,NA,NA,Right,1862,space,grid,Sun Oct 06 2019 14:57:38 GMT+0100 (British Summer Time),1570370258586,circle,circle,25.5699166666667,1,2,reaction_practice
8552,Press SPACE when you see a shape on the screen,276,21,,correct,university,100,1570371792781,NA,68,NA,blue,1,circle,male,NA,NA,NA,NA,Right,1539,space,grid,Sun Oct 06 2019 14:57:38 GMT+0100 (British Summer Time),1570370258586,circle,circle,25.5699166666667,1,3,reaction_practice
8552,Press SPACE when you see a shape on the screen,249,21,,correct,university,100,1570371792781,NA,68,NA,blue,1,square,male,NA,NA,NA,NA,Right,1743,space,grid,Sun Oct 06 2019 14:57:38 GMT+0100 (British Summer Time),1570370258586,square,square,25.5699166666667,1,4,reaction_practice
8552,Press SPACE when you see a shape on the screen,532,21,,correct,university,100,1570371792781,NA,68,NA,blue,1,square,male,NA,NA,NA,NA,Right,2571,space,grid,Sun Oct 06 2019 14:57:38 GMT+0100 (British Summer Time),1570370258586,square,square,25.5699166666667,1,5,reaction_practice
8552,NA,319,21,,correct,university,100,1570371792781,NA,68,NA,blue,1,square,male,NA,NA,NA,NA,Right,1489,space,grid,Sun Oct 06 2019 14:57:38 GMT+0100 (British Summer Time),1570370258586,square,square,25.5699166666667,1,1,reaction_main
8552,NA,300,21,,correct,university,100,1570371792781,NA,68,NA,blue,1,circle,male,NA,NA,NA,NA,Right,1227,space,grid,Sun Oct 06 2019 14:57:38 GMT+0100 (British Summer Time),1570370258586,circle,circle,25.5699166666667,1,2,reaction_main
8552,NA,267,21,,correct,university,100,1570371792781,NA,68,NA,blue,1,circle,male,NA,NA,NA,NA,Right,2156,space,grid,Sun Oct 06 2019 14:57:38 GMT+0100 (British Summer Time),1570370258586,circle,circle,25.5699166666667,1,3,reaction_main
8552,NA,269,21,,correct,university,100,1570371792781,NA,68,NA,blue,1,square,male,NA,NA,NA,NA,Right,1338,space,grid,Sun Oct 06 2019 14:57:38 GMT+0100 (British Summer Time),1570370258586,square,square,25.5699166666667,1,4,reaction_main
8552,NA,256,21,,correct,university,100,1570371792781,NA,68,NA,blue,1,square,male,NA,NA,NA,NA,Right,1792,space,grid,Sun Oct 06 2019 14:57:38 GMT+0100 (British Summer Time),1570370258586,square,square,25.5699166666667,1,5,reaction_main
8552,NA,304,21,,correct,university,100,1570371792781,NA,68,NA,blue,1,circle,male,NA,NA,NA,NA,Right,2304,space,grid,Sun Oct 06 2019 14:57:38 GMT+0100 (British Summer Time),1570370258586,circle,circle,25.5699166666667,1,6,reaction_main
8552,NA,267,21,,correct,university,100,1570371792781,NA,68,NA,blue,1,square,male,NA,NA,NA,NA,Right,2251,space,grid,Sun Oct 06 2019 14:57:38 GMT+0100 (British Summer Time),1570370258586,square,square,25.5699166666667,1,7,reaction_main
8552,NA,288,21,,correct,university,100,1570371792781,NA,68,NA,blue,1,circle,male,NA,NA,NA,NA,Right,1481,space,grid,Sun Oct 06 2019 14:57:38 GMT+0100 (British Summer Time),1570370258586,circle,circle,25.5699166666667,1,8,reaction_main
8552,NA,248,21,,correct,university,100,1570371792781,NA,68,NA,blue,1,square,male,NA,NA,NA,NA,Right,1749,space,grid,Sun Oct 06 2019 14:57:38 GMT+0100 (British Summer Time),1570370258586,square,square,25.5699166666667,1,9,reaction_main
8552,NA,276,21,,correct,university,100,1570371792781,NA,68,NA,blue,1,circle,male,NA,NA,NA,NA,Right,2163,space,grid,Sun Oct 06 2019 14:57:38 GMT+0100 (British Summer Time),1570370258586,circle,circle,25.5699166666667,1,10,reaction_main
8552,NA,286,21,,correct,university,100,1570371792781,NA,68,NA,blue,1,square,male,NA,NA,NA,NA,Right,2507,space,grid,Sun Oct 06 2019 14:57:38 GMT+0100 (British Summer Time),1570370258586,square,square,25.5699166666667,1,11,reaction_main
8552,NA,271,21,,correct,university,100,1570371792781,NA,68,NA,blue,1,circle,male,NA,NA,NA,NA,Right,2591,space,grid,Sun Oct 06 2019 14:57:38 GMT+0100 (British Summer Time),1570370258586,circle,circle,25.5699166666667,1,12,reaction_main
8552,NA,410,21,,correct,university,100,1570371792781,NA,68,NA,blue,1,square,male,NA,NA,NA,NA,Right,2661,space,grid,Sun Oct 06 2019 14:57:38 GMT+0100 (British Summer Time),1570370258586,square,square,25.5699166666667,1,13,reaction_main
8552,NA,335,21,,correct,university,100,1570371792781,NA,68,NA,blue,1,circle,male,NA,NA,NA,NA,Right,2056,space,grid,Sun Oct 06 2019 14:57:38 GMT+0100 (British Summer Time),1570370258586,circle,circle,25.5699166666667,1,14,reaction_main
8552,NA,344,21,,correct,university,100,1570371792781,NA,68,NA,blue,1,circle,male,NA,NA,NA,NA,Right,1440,space,grid,Sun Oct 06 2019 14:57:38 GMT+0100 (British Summer Time),1570370258586,circle,circle,25.5699166666667,1,15,reaction_main
8552,NA,269,21,,correct,university,100,1570371792781,NA,68,NA,blue,1,square,male,NA,NA,NA,NA,Right,2601,space,grid,Sun Oct 06 2019 14:57:38 GMT+0100 (British Summer Time),1570370258586,square,square,25.5699166666667,1,16,reaction_main
8552,NA,306,21,,correct,university,100,1570371792781,NA,68,NA,blue,1,circle,male,NA,NA,NA,NA,Right,1398,space,grid,Sun Oct 06 2019 14:57:38 GMT+0100 (British Summer Time),1570370258586,circle,circle,25.5699166666667,1,17,reaction_main
8552,NA,278,21,,correct,university,100,1570371792781,NA,68,NA,blue,1,circle,male,NA,NA,NA,NA,Right,1489,space,grid,Sun Oct 06 2019 14:57:38 GMT+0100 (British Summer Time),1570370258586,circle,circle,25.5699166666667,1,18,reaction_main
8552,NA,278,21,,correct,university,100,1570371792781,NA,68,NA,blue,1,square,male,NA,NA,NA,NA,Right,2017,space,grid,Sun Oct 06 2019 14:57:38 GMT+0100 (British Summer Time),1570370258586,square,square,25.5699166666667,1,19,reaction_main
8552,NA,287,21,,correct,university,100,1570371792781,NA,68,NA,blue,1,square,male,NA,NA,NA,NA,Right,1745,space,grid,Sun Oct 06 2019 14:57:38 GMT+0100 (British Summer Time),1570370258586,square,square,25.5699166666667,1,20,reaction_main
8552,"Press SPACE when you see a square. Otherwise, just wait and do nothing.",2000,21,,correct,university,100,1570371792781,NA,68,NA,blue,1,circle,male,NA,NA,NA,NA,Right,1791,wait,grid,Sun Oct 06 2019 14:57:38 GMT+0100 (British Summer Time),1570370258586,circle,square,25.5699166666667,1,1,goNoGo_practice
8552,"Press SPACE when you see a square. Otherwise, just wait and do nothing.",329,21,,correct,university,100,1570371792781,NA,68,NA,blue,1,square,male,NA,NA,NA,NA,Right,1487,space,grid,Sun Oct 06 2019 14:57:38 GMT+0100 (British Summer Time),1570370258586,square,square,25.5699166666667,1,2,goNoGo_practice
8552,"Press SPACE when you see a square. Otherwise, just wait and do nothing.",2001,21,,correct,university,100,1570371792781,NA,68,NA,blue,1,circle,male,NA,NA,NA,NA,Right,1685,wait,grid,Sun Oct 06 2019 14:57:38 GMT+0100 (British Summer Time),1570370258586,circle,square,25.5699166666667,1,3,goNoGo_practice
8552,"Press SPACE when you see a square. Otherwise, just wait and do nothing.",686,21,,correct,university,100,1570371792781,NA,68,NA,blue,1,square,male,NA,NA,NA,NA,Right,1324,space,grid,Sun Oct 06 2019 14:57:38 GMT+0100 (British Summer Time),1570370258586,square,square,25.5699166666667,1,4,goNoGo_practice
8552,"Press SPACE when you see a square. Otherwise, just wait and do nothing.",2001,21,,correct,university,100,1570371792781,NA,68,NA,blue,1,circle,male,NA,NA,NA,NA,Right,1416,wait,grid,Sun Oct 06 2019 14:57:38 GMT+0100 (British Summer Time),1570370258586,circle,square,25.5699166666667,1,5,goNoGo_practice
8552,NA,2002,21,,correct,university,100,1570371792781,NA,68,NA,blue,1,circle,male,NA,NA,NA,NA,Right,2122,wait,grid,Sun Oct 06 2019 14:57:38 GMT+0100 (British Summer Time),1570370258586,circle,square,25.5699166666667,1,1,goNoGo_main
8552,NA,389,21,,correct,university,100,1570371792781,NA,68,NA,blue,1,square,male,NA,NA,NA,NA,Right,2358,space,grid,Sun Oct 06 2019 14:57:38 GMT+0100 (British Summer Time),1570370258586,square,square,25.5699166666667,1,2,goNoGo_main
8552,NA,2001,21,,correct,university,100,1570371792781,NA,68,NA,blue,1,circle,male,NA,NA,NA,NA,Right,2628,wait,grid,Sun Oct 06 2019 14:57:38 GMT+0100 (British Summer Time),1570370258586,circle,square,25.5699166666667,1,3,goNoGo_main
8552,NA,357,21,,correct,university,100,1570371792781,NA,68,NA,blue,1,square,male,NA,NA,NA,NA,Right,1477,space,grid,Sun Oct 06 2019 14:57:38 GMT+0100 (British Summer Time),1570370258586,square,square,25.5699166666667,1,4,goNoGo_main
8552,NA,629,21,,correct,university,100,1570371792781,NA,68,NA,blue,1,square,male,NA,NA,NA,NA,Right,2089,space,grid,Sun Oct 06 2019 14:57:38 GMT+0100 (British Summer Time),1570370258586,square,square,25.5699166666667,1,5,goNoGo_main
8552,NA,2001,21,,correct,university,100,1570371792781,NA,68,NA,blue,1,circle,male,NA,NA,NA,NA,Right,2691,wait,grid,Sun Oct 06 2019 14:57:38 GMT+0100 (British Summer Time),1570370258586,circle,square,25.5699166666667,1,6,goNoGo_main
8552,NA,487,21,,correct,university,100,1570371792781,NA,68,NA,blue,1,square,male,NA,NA,NA,NA,Right,1694,space,grid,Sun Oct 06 2019 14:57:38 GMT+0100 (British Summer Time),1570370258586,square,square,25.5699166666667,1,7,goNoGo_main
8552,NA,2000,21,,correct,university,100,1570371792781,NA,68,NA,blue,1,circle,male,NA,NA,NA,NA,Right,2612,wait,grid,Sun Oct 06 2019 14:57:38 GMT+0100 (British Summer Time),1570370258586,circle,square,25.5699166666667,1,8,goNoGo_main
8552,NA,436,21,,correct,university,100,1570371792781,NA,68,NA,blue,1,square,male,NA,NA,NA,NA,Right,2325,space,grid,Sun Oct 06 2019 14:57:38 GMT+0100 (British Summer Time),1570370258586,square,square,25.5699166666667,1,9,goNoGo_main
8552,NA,2000,21,,correct,university,100,1570371792781,NA,68,NA,blue,1,circle,male,NA,NA,NA,NA,Right,2198,wait,grid,Sun Oct 06 2019 14:57:38 GMT+0100 (British Summer Time),1570370258586,circle,square,25.5699166666667,1,10,goNoGo_main
8552,NA,690,21,,correct,university,100,1570371792781,NA,68,NA,blue,1,square,male,NA,NA,NA,NA,Right,2575,space,grid,Sun Oct 06 2019 14:57:38 GMT+0100 (British Summer Time),1570370258586,square,square,25.5699166666667,1,11,goNoGo_main
8552,NA,2001,21,,correct,university,100,1570371792781,NA,68,NA,blue,1,circle,male,NA,NA,NA,NA,Right,1806,wait,grid,Sun Oct 06 2019 14:57:38 GMT+0100 (British Summer Time),1570370258586,circle,square,25.5699166666667,1,12,goNoGo_main
8552,NA,376,21,,correct,university,100,1570371792781,NA,68,NA,blue,1,square,male,NA,NA,NA,NA,Right,1877,space,grid,Sun Oct 06 2019 14:57:38 GMT+0100 (British Summer Time),1570370258586,square,square,25.5699166666667,1,13,goNoGo_main
8552,NA,727,21,,correct,university,100,1570371792781,NA,68,NA,blue,1,square,male,NA,NA,NA,NA,Right,2321,space,grid,Sun Oct 06 2019 14:57:38 GMT+0100 (British Summer Time),1570370258586,square,square,25.5699166666667,1,14,goNoGo_main
8552,NA,2000,21,,correct,university,100,1570371792781,NA,68,NA,blue,1,circle,male,NA,NA,NA,NA,Right,1413,wait,grid,Sun Oct 06 2019 14:57:38 GMT+0100 (British Summer Time),1570370258586,circle,square,25.5699166666667,1,15,goNoGo_main
8552,NA,2001,21,,correct,university,100,1570371792781,NA,68,NA,blue,1,circle,male,NA,NA,NA,NA,Right,1343,wait,grid,Sun Oct 06 2019 14:57:38 GMT+0100 (British Summer Time),1570370258586,circle,square,25.5699166666667,1,16,goNoGo_main
8552,NA,697,21,,correct,university,100,1570371792781,NA,68,NA,blue,1,square,male,NA,NA,NA,NA,Right,1808,space,grid,Sun Oct 06 2019 14:57:38 GMT+0100 (British Summer Time),1570370258586,square,square,25.5699166666667,1,17,goNoGo_main
8552,NA,720,21,,correct,university,100,1570371792781,NA,68,NA,blue,1,square,male,NA,NA,NA,NA,Right,2165,space,grid,Sun Oct 06 2019 14:57:38 GMT+0100 (British Summer Time),1570370258586,square,square,25.5699166666667,1,18,goNoGo_main
8552,NA,2000,21,,correct,university,100,1570371792781,NA,68,NA,blue,1,circle,male,NA,NA,NA,NA,Right,1784,wait,grid,Sun Oct 06 2019 14:57:38 GMT+0100 (British Summer Time),1570370258586,circle,square,25.5699166666667,1,19,goNoGo_main
8552,NA,2000,21,,correct,university,100,1570371792781,NA,68,NA,blue,1,circle,male,NA,NA,NA,NA,Right,1260,wait,grid,Sun Oct 06 2019 14:57:38 GMT+0100 (British Summer Time),1570370258586,circle,square,25.5699166666667,1,20,goNoGo_main
8552,NA,628,21,,correct,university,100,1570371792781,square,68,square,blue,1,square,male,circle,f,j,f,Right,2357,NA,grid,Sun Oct 06 2019 14:57:38 GMT+0100 (British Summer Time),1570370258586,NA,NA,25.5699166666667,1,1,discrimination_practice
8552,NA,741,21,,correct,university,100,1570371792781,square,68,square,blue,1,square,male,circle,f,j,f,Right,1662,NA,grid,Sun Oct 06 2019 14:57:38 GMT+0100 (British Summer Time),1570370258586,NA,NA,25.5699166666667,1,2,discrimination_practice
8552,NA,581,21,,correct,university,100,1570371792781,circle,68,square,blue,1,circle,male,circle,f,j,j,Right,2034,NA,grid,Sun Oct 06 2019 14:57:38 GMT+0100 (British Summer Time),1570370258586,NA,NA,25.5699166666667,1,3,discrimination_practice
8552,NA,554,21,,correct,university,100,1570371792781,circle,68,square,blue,1,circle,male,circle,f,j,j,Right,2366,NA,grid,Sun Oct 06 2019 14:57:38 GMT+0100 (British Summer Time),1570370258586,NA,NA,25.5699166666667,1,4,discrimination_practice
8552,NA,439,21,,correct,university,100,1570371792781,circle,68,square,blue,1,circle,male,circle,f,j,j,Right,2657,NA,grid,Sun Oct 06 2019 14:57:38 GMT+0100 (British Summer Time),1570370258586,NA,NA,25.5699166666667,1,5,discrimination_practice
8552,NA,387,21,,correct,university,100,1570371792781,square,68,square,blue,1,square,male,circle,f,j,f,Right,1725,NA,grid,Sun Oct 06 2019 14:57:38 GMT+0100 (British Summer Time),1570370258586,NA,NA,25.5699166666667,1,1,discrimination_main
8552,NA,447,21,,correct,university,100,1570371792781,square,68,square,blue,1,square,male,circle,f,j,f,Right,2129,NA,grid,Sun Oct 06 2019 14:57:38 GMT+0100 (British Summer Time),1570370258586,NA,NA,25.5699166666667,1,2,discrimination_main
8552,NA,551,21,,correct,university,100,1570371792781,circle,68,square,blue,1,circle,male,circle,f,j,j,Right,1656,NA,grid,Sun Oct 06 2019 14:57:38 GMT+0100 (British Summer Time),1570370258586,NA,NA,25.5699166666667,1,3,discrimination_main
8552,NA,779,21,,correct,university,100,1570371792781,circle,68,square,blue,1,circle,male,circle,f,j,j,Right,1791,NA,grid,Sun Oct 06 2019 14:57:38 GMT+0100 (British Summer Time),1570370258586,NA,NA,25.5699166666667,1,4,discrimination_main
8552,NA,571,21,,correct,university,100,1570371792781,circle,68,square,blue,1,circle,male,circle,f,j,j,Right,1226,NA,grid,Sun Oct 06 2019 14:57:38 GMT+0100 (British Summer Time),1570370258586,NA,NA,25.5699166666667,1,5,discrimination_main
8552,NA,622,21,,correct,university,100,1570371792781,circle,68,square,blue,1,circle,male,circle,f,j,j,Right,2448,NA,grid,Sun Oct 06 2019 14:57:38 GMT+0100 (British Summer Time),1570370258586,NA,NA,25.5699166666667,1,6,discrimination_main
8552,NA,458,21,,correct,university,100,1570371792781,circle,68,square,blue,1,circle,male,circle,f,j,j,Right,2029,NA,grid,Sun Oct 06 2019 14:57:38 GMT+0100 (British Summer Time),1570370258586,NA,NA,25.5699166666667,1,7,discrimination_main
8552,NA,452,21,,correct,university,100,1570371792781,circle,68,square,blue,1,circle,male,circle,f,j,j,Right,2605,NA,grid,Sun Oct 06 2019 14:57:38 GMT+0100 (British Summer Time),1570370258586,NA,NA,25.5699166666667,1,8,discrimination_main
8552,NA,423,21,,correct,university,100,1570371792781,circle,68,square,blue,1,circle,male,circle,f,j,j,Right,2494,NA,grid,Sun Oct 06 2019 14:57:38 GMT+0100 (British Summer Time),1570370258586,NA,NA,25.5699166666667,1,9,discrimination_main
8552,NA,373,21,,incorrect,university,100,1570371792781,square,68,square,blue,1,square,male,circle,f,j,j,Right,1723,NA,grid,Sun Oct 06 2019 14:57:38 GMT+0100 (British Summer Time),1570370258586,NA,NA,25.5699166666667,1,10,discrimination_main
8552,NA,399,21,,correct,university,100,1570371792781,square,68,square,blue,1,square,male,circle,f,j,f,Right,1623,NA,grid,Sun Oct 06 2019 14:57:38 GMT+0100 (British Summer Time),1570370258586,NA,NA,25.5699166666667,1,11,discrimination_main
8552,NA,409,21,,correct,university,100,1570371792781,circle,68,square,blue,1,circle,male,circle,f,j,j,Right,2431,NA,grid,Sun Oct 06 2019 14:57:38 GMT+0100 (British Summer Time),1570370258586,NA,NA,25.5699166666667,1,12,discrimination_main
8552,NA,464,21,,correct,university,100,1570371792781,circle,68,square,blue,1,circle,male,circle,f,j,j,Right,1664,NA,grid,Sun Oct 06 2019 14:57:38 GMT+0100 (British Summer Time),1570370258586,NA,NA,25.5699166666667,1,13,discrimination_main
8552,NA,683,21,,correct,university,100,1570371792781,square,68,square,blue,1,square,male,circle,f,j,f,Right,1979,NA,grid,Sun Oct 06 2019 14:57:38 GMT+0100 (British Summer Time),1570370258586,NA,NA,25.5699166666667,1,14,discrimination_main
8552,NA,471,21,,correct,university,100,1570371792781,square,68,square,blue,1,square,male,circle,f,j,f,Right,2560,NA,grid,Sun Oct 06 2019 14:57:38 GMT+0100 (British Summer Time),1570370258586,NA,NA,25.5699166666667,1,15,discrimination_main
8552,NA,541,21,,correct,university,100,1570371792781,square,68,square,blue,1,square,male,circle,f,j,f,Right,2241,NA,grid,Sun Oct 06 2019 14:57:38 GMT+0100 (British Summer Time),1570370258586,NA,NA,25.5699166666667,1,16,discrimination_main
8552,NA,562,21,,correct,university,100,1570371792781,circle,68,square,blue,1,circle,male,circle,f,j,j,Right,1702,NA,grid,Sun Oct 06 2019 14:57:38 GMT+0100 (British Summer Time),1570370258586,NA,NA,25.5699166666667,1,17,discrimination_main
8552,NA,532,21,,correct,university,100,1570371792781,square,68,square,blue,1,square,male,circle,f,j,f,Right,2651,NA,grid,Sun Oct 06 2019 14:57:38 GMT+0100 (British Summer Time),1570370258586,NA,NA,25.5699166666667,1,18,discrimination_main
8552,NA,535,21,,correct,university,100,1570371792781,square,68,square,blue,1,square,male,circle,f,j,f,Right,1946,NA,grid,Sun Oct 06 2019 14:57:38 GMT+0100 (British Summer Time),1570370258586,NA,NA,25.5699166666667,1,19,discrimination_main
8552,NA,493,21,,correct,university,100,1570371792781,square,68,square,blue,1,square,male,circle,f,j,f,Right,1242,NA,grid,Sun Oct 06 2019 14:57:38 GMT+0100 (British Summer Time),1570370258586,NA,NA,25.5699166666667,1,20,discrimination_main
8551,Press SPACE when you see a shape on the screen,320,22,,correct,university,100,1570371596572,NA,68,NA,blue,1,square,male,NA,NA,NA,NA,right,2573,space,grid,Sun Oct 06 2019 16:15:49 GMT+0200 (czas środkowoeuropejski letni),1570371349760,square,square,4.11353333333333,1,1,reaction_practice
8551,Press SPACE when you see a shape on the screen,266,22,,correct,university,100,1570371596572,NA,68,NA,blue,1,square,male,NA,NA,NA,NA,right,2035,space,grid,Sun Oct 06 2019 16:15:49 GMT+0200 (czas środkowoeuropejski letni),1570371349760,square,square,4.11353333333333,1,2,reaction_practice
8551,Press SPACE when you see a shape on the screen,291,22,,correct,university,100,1570371596572,NA,68,NA,blue,1,circle,male,NA,NA,NA,NA,right,1723,space,grid,Sun Oct 06 2019 16:15:49 GMT+0200 (czas środkowoeuropejski letni),1570371349760,circle,circle,4.11353333333333,1,3,reaction_practice
8551,Press SPACE when you see a shape on the screen,316,22,,correct,university,100,1570371596572,NA,68,NA,blue,1,square,male,NA,NA,NA,NA,right,2595,space,grid,Sun Oct 06 2019 16:15:49 GMT+0200 (czas środkowoeuropejski letni),1570371349760,square,square,4.11353333333333,1,4,reaction_practice
8551,Press SPACE when you see a shape on the screen,300,22,,correct,university,100,1570371596572,NA,68,NA,blue,1,circle,male,NA,NA,NA,NA,right,2164,space,grid,Sun Oct 06 2019 16:15:49 GMT+0200 (czas środkowoeuropejski letni),1570371349760,circle,circle,4.11353333333333,1,5,reaction_practice
8551,NA,577,22,,correct,university,100,1570371596572,NA,68,NA,blue,1,square,male,NA,NA,NA,NA,right,1364,space,grid,Sun Oct 06 2019 16:15:49 GMT+0200 (czas środkowoeuropejski letni),1570371349760,square,square,4.11353333333333,1,1,reaction_main
8551,NA,272,22,,correct,university,100,1570371596572,NA,68,NA,blue,1,square,male,NA,NA,NA,NA,right,2606,space,grid,Sun Oct 06 2019 16:15:49 GMT+0200 (czas środkowoeuropejski letni),1570371349760,square,square,4.11353333333333,1,2,reaction_main
8551,NA,712,22,,correct,university,100,1570371596572,NA,68,NA,blue,1,square,male,NA,NA,NA,NA,right,1245,space,grid,Sun Oct 06 2019 16:15:49 GMT+0200 (czas środkowoeuropejski letni),1570371349760,square,square,4.11353333333333,1,3,reaction_main
8551,NA,273,22,,correct,university,100,1570371596572,NA,68,NA,blue,1,circle,male,NA,NA,NA,NA,right,2261,space,grid,Sun Oct 06 2019 16:15:49 GMT+0200 (czas środkowoeuropejski letni),1570371349760,circle,circle,4.11353333333333,1,4,reaction_main
8551,NA,249,22,,correct,university,100,1570371596572,NA,68,NA,blue,1,circle,male,NA,NA,NA,NA,right,2141,space,grid,Sun Oct 06 2019 16:15:49 GMT+0200 (czas środkowoeuropejski letni),1570371349760,circle,circle,4.11353333333333,1,5,reaction_main
8551,NA,450,22,,correct,university,100,1570371596572,NA,68,NA,blue,1,circle,male,NA,NA,NA,NA,right,1479,space,grid,Sun Oct 06 2019 16:15:49 GMT+0200 (czas środkowoeuropejski letni),1570371349760,circle,circle,4.11353333333333,1,6,reaction_main
8551,NA,255,22,,correct,university,100,1570371596572,NA,68,NA,blue,1,circle,male,NA,NA,NA,NA,right,1615,space,grid,Sun Oct 06 2019 16:15:49 GMT+0200 (czas środkowoeuropejski letni),1570371349760,circle,circle,4.11353333333333,1,7,reaction_main
8551,NA,286,22,,correct,university,100,1570371596572,NA,68,NA,blue,1,square,male,NA,NA,NA,NA,right,1489,space,grid,Sun Oct 06 2019 16:15:49 GMT+0200 (czas środkowoeuropejski letni),1570371349760,square,square,4.11353333333333,1,8,reaction_main
8551,NA,259,22,,correct,university,100,1570371596572,NA,68,NA,blue,1,square,male,NA,NA,NA,NA,right,2458,space,grid,Sun Oct 06 2019 16:15:49 GMT+0200 (czas środkowoeuropejski letni),1570371349760,square,square,4.11353333333333,1,9,reaction_main
8551,NA,267,22,,correct,university,100,1570371596572,NA,68,NA,blue,1,square,male,NA,NA,NA,NA,right,1908,space,grid,Sun Oct 06 2019 16:15:49 GMT+0200 (czas środkowoeuropejski letni),1570371349760,square,square,4.11353333333333,1,10,reaction_main
8551,NA,291,22,,correct,university,100,1570371596572,NA,68,NA,blue,1,square,male,NA,NA,NA,NA,right,1499,space,grid,Sun Oct 06 2019 16:15:49 GMT+0200 (czas środkowoeuropejski letni),1570371349760,square,square,4.11353333333333,1,11,reaction_main
8551,NA,294,22,,correct,university,100,1570371596572,NA,68,NA,blue,1,square,male,NA,NA,NA,NA,right,1289,space,grid,Sun Oct 06 2019 16:15:49 GMT+0200 (czas środkowoeuropejski letni),1570371349760,square,square,4.11353333333333,1,12,reaction_main
8551,NA,291,22,,correct,university,100,1570371596572,NA,68,NA,blue,1,circle,male,NA,NA,NA,NA,right,2426,space,grid,Sun Oct 06 2019 16:15:49 GMT+0200 (czas środkowoeuropejski letni),1570371349760,circle,circle,4.11353333333333,1,13,reaction_main
8551,NA,243,22,,correct,university,100,1570371596572,NA,68,NA,blue,1,circle,male,NA,NA,NA,NA,right,2436,space,grid,Sun Oct 06 2019 16:15:49 GMT+0200 (czas środkowoeuropejski letni),1570371349760,circle,circle,4.11353333333333,1,14,reaction_main
8551,NA,252,22,,correct,university,100,1570371596572,NA,68,NA,blue,1,square,male,NA,NA,NA,NA,right,2449,space,grid,Sun Oct 06 2019 16:15:49 GMT+0200 (czas środkowoeuropejski letni),1570371349760,square,square,4.11353333333333,1,15,reaction_main
8551,NA,283,22,,correct,university,100,1570371596572,NA,68,NA,blue,1,square,male,NA,NA,NA,NA,right,1612,space,grid,Sun Oct 06 2019 16:15:49 GMT+0200 (czas środkowoeuropejski letni),1570371349760,square,square,4.11353333333333,1,16,reaction_main
8551,NA,316,22,,correct,university,100,1570371596572,NA,68,NA,blue,1,circle,male,NA,NA,NA,NA,right,1259,space,grid,Sun Oct 06 2019 16:15:49 GMT+0200 (czas środkowoeuropejski letni),1570371349760,circle,circle,4.11353333333333,1,17,reaction_main
8551,NA,254,22,,correct,university,100,1570371596572,NA,68,NA,blue,1,circle,male,NA,NA,NA,NA,right,1706,space,grid,Sun Oct 06 2019 16:15:49 GMT+0200 (czas środkowoeuropejski letni),1570371349760,circle,circle,4.11353333333333,1,18,reaction_main
8551,NA,284,22,,correct,university,100,1570371596572,NA,68,NA,blue,1,circle,male,NA,NA,NA,NA,right,2492,space,grid,Sun Oct 06 2019 16:15:49 GMT+0200 (czas środkowoeuropejski letni),1570371349760,circle,circle,4.11353333333333,1,19,reaction_main
8551,NA,277,22,,correct,university,100,1570371596572,NA,68,NA,blue,1,circle,male,NA,NA,NA,NA,right,1970,space,grid,Sun Oct 06 2019 16:15:49 GMT+0200 (czas środkowoeuropejski letni),1570371349760,circle,circle,4.11353333333333,1,20,reaction_main
8551,"Press SPACE when you see a square. Otherwise, just wait and do nothing.",371,22,,correct,university,100,1570371596572,NA,68,NA,blue,1,square,male,NA,NA,NA,NA,right,1353,space,grid,Sun Oct 06 2019 16:15:49 GMT+0200 (czas środkowoeuropejski letni),1570371349760,square,square,4.11353333333333,1,1,goNoGo_practice
8551,"Press SPACE when you see a square. Otherwise, just wait and do nothing.",328,22,,correct,university,100,1570371596572,NA,68,NA,blue,1,square,male,NA,NA,NA,NA,right,1204,space,grid,Sun Oct 06 2019 16:15:49 GMT+0200 (czas środkowoeuropejski letni),1570371349760,square,square,4.11353333333333,1,2,goNoGo_practice
8551,"Press SPACE when you see a square. Otherwise, just wait and do nothing.",335,22,,incorrect,university,100,1570371596572,NA,68,NA,blue,1,circle,male,NA,NA,NA,NA,right,1888,space,grid,Sun Oct 06 2019 16:15:49 GMT+0200 (czas środkowoeuropejski letni),1570371349760,circle,square,4.11353333333333,1,3,goNoGo_practice
8551,"Press SPACE when you see a square. Otherwise, just wait and do nothing.",2000,22,,correct,university,100,1570371596572,NA,68,NA,blue,1,circle,male,NA,NA,NA,NA,right,1342,wait,grid,Sun Oct 06 2019 16:15:49 GMT+0200 (czas środkowoeuropejski letni),1570371349760,circle,square,4.11353333333333,1,4,goNoGo_practice
8551,"Press SPACE when you see a square. Otherwise, just wait and do nothing.",384,22,,correct,university,100,1570371596572,NA,68,NA,blue,1,square,male,NA,NA,NA,NA,right,1472,space,grid,Sun Oct 06 2019 16:15:49 GMT+0200 (czas środkowoeuropejski letni),1570371349760,square,square,4.11353333333333,1,5,goNoGo_practice
8551,NA,311,22,,correct,university,100,1570371596572,NA,68,NA,blue,1,square,male,NA,NA,NA,NA,right,1517,space,grid,Sun Oct 06 2019 16:15:49 GMT+0200 (czas środkowoeuropejski letni),1570371349760,square,square,4.11353333333333,1,1,goNoGo_main
8551,NA,2001,22,,correct,university,100,1570371596572,NA,68,NA,blue,1,circle,male,NA,NA,NA,NA,right,1450,wait,grid,Sun Oct 06 2019 16:15:49 GMT+0200 (czas środkowoeuropejski letni),1570371349760,circle,square,4.11353333333333,1,2,goNoGo_main
8551,NA,393,22,,correct,university,100,1570371596572,NA,68,NA,blue,1,square,male,NA,NA,NA,NA,right,1442,space,grid,Sun Oct 06 2019 16:15:49 GMT+0200 (czas środkowoeuropejski letni),1570371349760,square,square,4.11353333333333,1,3,goNoGo_main
8551,NA,2001,22,,correct,university,100,1570371596572,NA,68,NA,blue,1,circle,male,NA,NA,NA,NA,right,1649,wait,grid,Sun Oct 06 2019 16:15:49 GMT+0200 (czas środkowoeuropejski letni),1570371349760,circle,square,4.11353333333333,1,4,goNoGo_main
8551,NA,347,22,,correct,university,100,1570371596572,NA,68,NA,blue,1,square,male,NA,NA,NA,NA,right,2251,space,grid,Sun Oct 06 2019 16:15:49 GMT+0200 (czas środkowoeuropejski letni),1570371349760,square,square,4.11353333333333,1,5,goNoGo_main
8551,NA,2000,22,,correct,university,100,1570371596572,NA,68,NA,blue,1,circle,male,NA,NA,NA,NA,right,2553,wait,grid,Sun Oct 06 2019 16:15:49 GMT+0200 (czas środkowoeuropejski letni),1570371349760,circle,square,4.11353333333333,1,6,goNoGo_main
8551,NA,2000,22,,correct,university,100,1570371596572,NA,68,NA,blue,1,circle,male,NA,NA,NA,NA,right,1255,wait,grid,Sun Oct 06 2019 16:15:49 GMT+0200 (czas środkowoeuropejski letni),1570371349760,circle,square,4.11353333333333,1,7,goNoGo_main
8551,NA,294,22,,correct,university,100,1570371596572,NA,68,NA,blue,1,square,male,NA,NA,NA,NA,right,1749,space,grid,Sun Oct 06 2019 16:15:49 GMT+0200 (czas środkowoeuropejski letni),1570371349760,square,square,4.11353333333333,1,8,goNoGo_main
8551,NA,438,22,,correct,university,100,1570371596572,NA,68,NA,blue,1,square,male,NA,NA,NA,NA,right,1544,space,grid,Sun Oct 06 2019 16:15:49 GMT+0200 (czas środkowoeuropejski letni),1570371349760,square,square,4.11353333333333,1,9,goNoGo_main
8551,NA,2000,22,,correct,university,100,1570371596572,NA,68,NA,blue,1,circle,male,NA,NA,NA,NA,right,2692,wait,grid,Sun Oct 06 2019 16:15:49 GMT+0200 (czas środkowoeuropejski letni),1570371349760,circle,square,4.11353333333333,1,10,goNoGo_main
8551,NA,2000,22,,correct,university,100,1570371596572,NA,68,NA,blue,1,circle,male,NA,NA,NA,NA,right,2022,wait,grid,Sun Oct 06 2019 16:15:49 GMT+0200 (czas środkowoeuropejski letni),1570371349760,circle,square,4.11353333333333,1,11,goNoGo_main
8551,NA,2000,22,,correct,university,100,1570371596572,NA,68,NA,blue,1,circle,male,NA,NA,NA,NA,right,2464,wait,grid,Sun Oct 06 2019 16:15:49 GMT+0200 (czas środkowoeuropejski letni),1570371349760,circle,square,4.11353333333333,1,12,goNoGo_main
8551,NA,2000,22,,correct,university,100,1570371596572,NA,68,NA,blue,1,circle,male,NA,NA,NA,NA,right,2249,wait,grid,Sun Oct 06 2019 16:15:49 GMT+0200 (czas środkowoeuropejski letni),1570371349760,circle,square,4.11353333333333,1,13,goNoGo_main
8551,NA,340,22,,correct,university,100,1570371596572,NA,68,NA,blue,1,square,male,NA,NA,NA,NA,right,1811,space,grid,Sun Oct 06 2019 16:15:49 GMT+0200 (czas środkowoeuropejski letni),1570371349760,square,square,4.11353333333333,1,14,goNoGo_main
8551,NA,454,22,,correct,university,100,1570371596572,NA,68,NA,blue,1,square,male,NA,NA,NA,NA,right,2289,space,grid,Sun Oct 06 2019 16:15:49 GMT+0200 (czas środkowoeuropejski letni),1570371349760,square,square,4.11353333333333,1,15,goNoGo_main
8551,NA,309,22,,correct,university,100,1570371596572,NA,68,NA,blue,1,square,male,NA,NA,NA,NA,right,1930,space,grid,Sun Oct 06 2019 16:15:49 GMT+0200 (czas środkowoeuropejski letni),1570371349760,square,square,4.11353333333333,1,16,goNoGo_main
8551,NA,2000,22,,correct,university,100,1570371596572,NA,68,NA,blue,1,circle,male,NA,NA,NA,NA,right,1361,wait,grid,Sun Oct 06 2019 16:15:49 GMT+0200 (czas środkowoeuropejski letni),1570371349760,circle,square,4.11353333333333,1,17,goNoGo_main
8551,NA,2001,22,,correct,university,100,1570371596572,NA,68,NA,blue,1,circle,male,NA,NA,NA,NA,right,1267,wait,grid,Sun Oct 06 2019 16:15:49 GMT+0200 (czas środkowoeuropejski letni),1570371349760,circle,square,4.11353333333333,1,18,goNoGo_main
8551,NA,328,22,,correct,university,100,1570371596572,NA,68,NA,blue,1,square,male,NA,NA,NA,NA,right,1994,space,grid,Sun Oct 06 2019 16:15:49 GMT+0200 (czas środkowoeuropejski letni),1570371349760,square,square,4.11353333333333,1,19,goNoGo_main
8551,NA,472,22,,correct,university,100,1570371596572,NA,68,NA,blue,1,square,male,NA,NA,NA,NA,right,2351,space,grid,Sun Oct 06 2019 16:15:49 GMT+0200 (czas środkowoeuropejski letni),1570371349760,square,square,4.11353333333333,1,20,goNoGo_main
8551,NA,486,22,,correct,university,100,1570371596572,circle,68,square,blue,1,circle,male,circle,f,j,j,right,1559,NA,grid,Sun Oct 06 2019 16:15:49 GMT+0200 (czas środkowoeuropejski letni),1570371349760,NA,NA,4.11353333333333,1,1,discrimination_practice
8551,NA,436,22,,correct,university,100,1570371596572,square,68,square,blue,1,square,male,circle,f,j,f,right,1690,NA,grid,Sun Oct 06 2019 16:15:49 GMT+0200 (czas środkowoeuropejski letni),1570371349760,NA,NA,4.11353333333333,1,2,discrimination_practice
8551,NA,471,22,,correct,university,100,1570371596572,circle,68,square,blue,1,circle,male,circle,f,j,j,right,1759,NA,grid,Sun Oct 06 2019 16:15:49 GMT+0200 (czas środkowoeuropejski letni),1570371349760,NA,NA,4.11353333333333,1,3,discrimination_practice
8551,NA,483,22,,correct,university,100,1570371596572,square,68,square,blue,1,square,male,circle,f,j,f,right,1284,NA,grid,Sun Oct 06 2019 16:15:49 GMT+0200 (czas środkowoeuropejski letni),1570371349760,NA,NA,4.11353333333333,1,4,discrimination_practice
8551,NA,413,22,,correct,university,100,1570371596572,square,68,square,blue,1,square,male,circle,f,j,f,right,2625,NA,grid,Sun Oct 06 2019 16:15:49 GMT+0200 (czas środkowoeuropejski letni),1570371349760,NA,NA,4.11353333333333,1,5,discrimination_practice
8551,NA,462,22,,correct,university,100,1570371596572,circle,68,square,blue,1,circle,male,circle,f,j,j,right,2055,NA,grid,Sun Oct 06 2019 16:15:49 GMT+0200 (czas środkowoeuropejski letni),1570371349760,NA,NA,4.11353333333333,1,1,discrimination_main
8551,NA,343,22,,correct,university,100,1570371596572,square,68,square,blue,1,square,male,circle,f,j,f,right,2504,NA,grid,Sun Oct 06 2019 16:15:49 GMT+0200 (czas środkowoeuropejski letni),1570371349760,NA,NA,4.11353333333333,1,2,discrimination_main
8551,NA,426,22,,correct,university,100,1570371596572,square,68,square,blue,1,square,male,circle,f,j,f,right,2581,NA,grid,Sun Oct 06 2019 16:15:49 GMT+0200 (czas środkowoeuropejski letni),1570371349760,NA,NA,4.11353333333333,1,3,discrimination_main
8551,NA,522,22,,correct,university,100,1570371596572,square,68,square,blue,1,square,male,circle,f,j,f,right,1781,NA,grid,Sun Oct 06 2019 16:15:49 GMT+0200 (czas środkowoeuropejski letni),1570371349760,NA,NA,4.11353333333333,1,4,discrimination_main
8551,NA,419,22,,correct,university,100,1570371596572,square,68,square,blue,1,square,male,circle,f,j,f,right,1356,NA,grid,Sun Oct 06 2019 16:15:49 GMT+0200 (czas środkowoeuropejski letni),1570371349760,NA,NA,4.11353333333333,1,5,discrimination_main
8551,NA,378,22,,correct,university,100,1570371596572,circle,68,square,blue,1,circle,male,circle,f,j,j,right,1238,NA,grid,Sun Oct 06 2019 16:15:49 GMT+0200 (czas środkowoeuropejski letni),1570371349760,NA,NA,4.11353333333333,1,6,discrimination_main
8551,NA,448,22,,correct,university,100,1570371596572,square,68,square,blue,1,square,male,circle,f,j,f,right,1943,NA,grid,Sun Oct 06 2019 16:15:49 GMT+0200 (czas środkowoeuropejski letni),1570371349760,NA,NA,4.11353333333333,1,7,discrimination_main
8551,NA,449,22,,correct,university,100,1570371596572,circle,68,square,blue,1,circle,male,circle,f,j,j,right,2230,NA,grid,Sun Oct 06 2019 16:15:49 GMT+0200 (czas środkowoeuropejski letni),1570371349760,NA,NA,4.11353333333333,1,8,discrimination_main
8551,NA,444,22,,correct,university,100,1570371596572,circle,68,square,blue,1,circle,male,circle,f,j,j,right,1571,NA,grid,Sun Oct 06 2019 16:15:49 GMT+0200 (czas środkowoeuropejski letni),1570371349760,NA,NA,4.11353333333333,1,9,discrimination_main
8551,NA,386,22,,correct,university,100,1570371596572,square,68,square,blue,1,square,male,circle,f,j,f,right,2229,NA,grid,Sun Oct 06 2019 16:15:49 GMT+0200 (czas środkowoeuropejski letni),1570371349760,NA,NA,4.11353333333333,1,10,discrimination_main
8551,NA,405,22,,correct,university,100,1570371596572,square,68,square,blue,1,square,male,circle,f,j,f,right,1426,NA,grid,Sun Oct 06 2019 16:15:49 GMT+0200 (czas środkowoeuropejski letni),1570371349760,NA,NA,4.11353333333333,1,11,discrimination_main
8551,NA,524,22,,correct,university,100,1570371596572,square,68,square,blue,1,square,male,circle,f,j,f,right,2572,NA,grid,Sun Oct 06 2019 16:15:49 GMT+0200 (czas środkowoeuropejski letni),1570371349760,NA,NA,4.11353333333333,1,12,discrimination_main
8551,NA,342,22,,correct,university,100,1570371596572,circle,68,square,blue,1,circle,male,circle,f,j,j,right,2353,NA,grid,Sun Oct 06 2019 16:15:49 GMT+0200 (czas środkowoeuropejski letni),1570371349760,NA,NA,4.11353333333333,1,13,discrimination_main
8551,NA,355,22,,correct,university,100,1570371596572,square,68,square,blue,1,square,male,circle,f,j,f,right,2429,NA,grid,Sun Oct 06 2019 16:15:49 GMT+0200 (czas środkowoeuropejski letni),1570371349760,NA,NA,4.11353333333333,1,14,discrimination_main
8551,NA,463,22,,correct,university,100,1570371596572,square,68,square,blue,1,square,male,circle,f,j,f,right,1206,NA,grid,Sun Oct 06 2019 16:15:49 GMT+0200 (czas środkowoeuropejski letni),1570371349760,NA,NA,4.11353333333333,1,15,discrimination_main
8551,NA,365,22,,correct,university,100,1570371596572,circle,68,square,blue,1,circle,male,circle,f,j,j,right,1522,NA,grid,Sun Oct 06 2019 16:15:49 GMT+0200 (czas środkowoeuropejski letni),1570371349760,NA,NA,4.11353333333333,1,16,discrimination_main
8551,NA,388,22,,correct,university,100,1570371596572,circle,68,square,blue,1,circle,male,circle,f,j,j,right,1498,NA,grid,Sun Oct 06 2019 16:15:49 GMT+0200 (czas środkowoeuropejski letni),1570371349760,NA,NA,4.11353333333333,1,17,discrimination_main
8551,NA,387,22,,correct,university,100,1570371596572,circle,68,square,blue,1,circle,male,circle,f,j,j,right,2227,NA,grid,Sun Oct 06 2019 16:15:49 GMT+0200 (czas środkowoeuropejski letni),1570371349760,NA,NA,4.11353333333333,1,18,discrimination_main
8551,NA,354,22,,correct,university,100,1570371596572,circle,68,square,blue,1,circle,male,circle,f,j,j,right,2412,NA,grid,Sun Oct 06 2019 16:15:49 GMT+0200 (czas środkowoeuropejski letni),1570371349760,NA,NA,4.11353333333333,1,19,discrimination_main
8551,NA,460,22,,correct,university,100,1570371596572,circle,68,square,blue,1,circle,male,circle,f,j,j,right,2364,NA,grid,Sun Oct 06 2019 16:15:49 GMT+0200 (czas środkowoeuropejski letni),1570371349760,NA,NA,4.11353333333333,1,20,discrimination_main
8550,Press SPACE when you see a shape on the screen,533,21,,correct,high school / college,100,1570370875376,NA,68,NA,blue,1,square,male,NA,NA,NA,NA,right,1567,space,grid,Sun Oct 06 2019 16:01:07 GMT+0200 (Central European Summer Time),1570370467748,square,square,6.7938,1,1,reaction_practice
8550,Press SPACE when you see a shape on the screen,375,21,,correct,high school / college,100,1570370875376,NA,68,NA,blue,1,square,male,NA,NA,NA,NA,right,2175,space,grid,Sun Oct 06 2019 16:01:07 GMT+0200 (Central European Summer Time),1570370467748,square,square,6.7938,1,2,reaction_practice
8550,Press SPACE when you see a shape on the screen,273,21,,correct,high school / college,100,1570370875376,NA,68,NA,blue,1,square,male,NA,NA,NA,NA,right,1593,space,grid,Sun Oct 06 2019 16:01:07 GMT+0200 (Central European Summer Time),1570370467748,square,square,6.7938,1,3,reaction_practice
8550,Press SPACE when you see a shape on the screen,258,21,,correct,high school / college,100,1570370875376,NA,68,NA,blue,1,circle,male,NA,NA,NA,NA,right,2337,space,grid,Sun Oct 06 2019 16:01:07 GMT+0200 (Central European Summer Time),1570370467748,circle,circle,6.7938,1,4,reaction_practice
8550,Press SPACE when you see a shape on the screen,257,21,,correct,high school / college,100,1570370875376,NA,68,NA,blue,1,circle,male,NA,NA,NA,NA,right,2342,space,grid,Sun Oct 06 2019 16:01:07 GMT+0200 (Central European Summer Time),1570370467748,circle,circle,6.7938,1,5,reaction_practice
8550,NA,279,21,,correct,high school / college,100,1570370875376,NA,68,NA,blue,1,square,male,NA,NA,NA,NA,right,1427,space,grid,Sun Oct 06 2019 16:01:07 GMT+0200 (Central European Summer Time),1570370467748,square,square,6.7938,1,1,reaction_main
8550,NA,249,21,,correct,high school / college,100,1570370875376,NA,68,NA,blue,1,circle,male,NA,NA,NA,NA,right,1878,space,grid,Sun Oct 06 2019 16:01:07 GMT+0200 (Central European Summer Time),1570370467748,circle,circle,6.7938,1,2,reaction_main
8550,NA,255,21,,correct,high school / college,100,1570370875376,NA,68,NA,blue,1,circle,male,NA,NA,NA,NA,right,1666,space,grid,Sun Oct 06 2019 16:01:07 GMT+0200 (Central European Summer Time),1570370467748,circle,circle,6.7938,1,3,reaction_main
8550,NA,245,21,,correct,high school / college,100,1570370875376,NA,68,NA,blue,1,square,male,NA,NA,NA,NA,right,1777,space,grid,Sun Oct 06 2019 16:01:07 GMT+0200 (Central European Summer Time),1570370467748,square,square,6.7938,1,4,reaction_main
8550,NA,247,21,,correct,high school / college,100,1570370875376,NA,68,NA,blue,1,circle,male,NA,NA,NA,NA,right,1640,space,grid,Sun Oct 06 2019 16:01:07 GMT+0200 (Central European Summer Time),1570370467748,circle,circle,6.7938,1,5,reaction_main
8550,NA,238,21,,correct,high school / college,100,1570370875376,NA,68,NA,blue,1,circle,male,NA,NA,NA,NA,right,1720,space,grid,Sun Oct 06 2019 16:01:07 GMT+0200 (Central European Summer Time),1570370467748,circle,circle,6.7938,1,6,reaction_main
8550,NA,274,21,,correct,high school / college,100,1570370875376,NA,68,NA,blue,1,circle,male,NA,NA,NA,NA,right,2527,space,grid,Sun Oct 06 2019 16:01:07 GMT+0200 (Central European Summer Time),1570370467748,circle,circle,6.7938,1,7,reaction_main
8550,NA,273,21,,correct,high school / college,100,1570370875376,NA,68,NA,blue,1,circle,male,NA,NA,NA,NA,right,1385,space,grid,Sun Oct 06 2019 16:01:07 GMT+0200 (Central European Summer Time),1570370467748,circle,circle,6.7938,1,8,reaction_main
8550,NA,260,21,,correct,high school / college,100,1570370875376,NA,68,NA,blue,1,square,male,NA,NA,NA,NA,right,2472,space,grid,Sun Oct 06 2019 16:01:07 GMT+0200 (Central European Summer Time),1570370467748,square,square,6.7938,1,9,reaction_main
8550,NA,278,21,,correct,high school / college,100,1570370875376,NA,68,NA,blue,1,square,male,NA,NA,NA,NA,right,2269,space,grid,Sun Oct 06 2019 16:01:07 GMT+0200 (Central European Summer Time),1570370467748,square,square,6.7938,1,10,reaction_main
8550,NA,270,21,,correct,high school / college,100,1570370875376,NA,68,NA,blue,1,square,male,NA,NA,NA,NA,right,2067,space,grid,Sun Oct 06 2019 16:01:07 GMT+0200 (Central European Summer Time),1570370467748,square,square,6.7938,1,11,reaction_main
8550,NA,300,21,,correct,high school / college,100,1570370875376,NA,68,NA,blue,1,circle,male,NA,NA,NA,NA,right,1409,space,grid,Sun Oct 06 2019 16:01:07 GMT+0200 (Central European Summer Time),1570370467748,circle,circle,6.7938,1,12,reaction_main
8550,NA,269,21,,correct,high school / college,100,1570370875376,NA,68,NA,blue,1,circle,male,NA,NA,NA,NA,right,1993,space,grid,Sun Oct 06 2019 16:01:07 GMT+0200 (Central European Summer Time),1570370467748,circle,circle,6.7938,1,13,reaction_main
8550,NA,267,21,,correct,high school / college,100,1570370875376,NA,68,NA,blue,1,square,male,NA,NA,NA,NA,right,1945,space,grid,Sun Oct 06 2019 16:01:07 GMT+0200 (Central European Summer Time),1570370467748,square,square,6.7938,1,14,reaction_main
8550,NA,252,21,,correct,high school / college,100,1570370875376,NA,68,NA,blue,1,square,male,NA,NA,NA,NA,right,1539,space,grid,Sun Oct 06 2019 16:01:07 GMT+0200 (Central European Summer Time),1570370467748,square,square,6.7938,1,15,reaction_main
8550,NA,54,21,,correct,high school / college,100,1570370875376,NA,68,NA,blue,1,square,male,NA,NA,NA,NA,right,2492,space,grid,Sun Oct 06 2019 16:01:07 GMT+0200 (Central European Summer Time),1570370467748,square,square,6.7938,1,16,reaction_main
8550,NA,263,21,,correct,high school / college,100,1570370875376,NA,68,NA,blue,1,circle,male,NA,NA,NA,NA,right,2215,space,grid,Sun Oct 06 2019 16:01:07 GMT+0200 (Central European Summer Time),1570370467748,circle,circle,6.7938,1,17,reaction_main
8550,NA,276,21,,correct,high school / college,100,1570370875376,NA,68,NA,blue,1,square,male,NA,NA,NA,NA,right,1560,space,grid,Sun Oct 06 2019 16:01:07 GMT+0200 (Central European Summer Time),1570370467748,square,square,6.7938,1,18,reaction_main
8550,NA,252,21,,correct,high school / college,100,1570370875376,NA,68,NA,blue,1,square,male,NA,NA,NA,NA,right,1901,space,grid,Sun Oct 06 2019 16:01:07 GMT+0200 (Central European Summer Time),1570370467748,square,square,6.7938,1,19,reaction_main
8550,NA,244,21,,correct,high school / college,100,1570370875376,NA,68,NA,blue,1,circle,male,NA,NA,NA,NA,right,2358,space,grid,Sun Oct 06 2019 16:01:07 GMT+0200 (Central European Summer Time),1570370467748,circle,circle,6.7938,1,20,reaction_main
8550,"Press SPACE when you see a circle. Otherwise, just wait and do nothing.",708,21,,correct,high school / college,100,1570370875376,NA,68,NA,blue,1,circle,male,NA,NA,NA,NA,right,1388,space,grid,Sun Oct 06 2019 16:01:07 GMT+0200 (Central European Summer Time),1570370467748,circle,circle,6.7938,1,1,goNoGo_practice
8550,"Press SPACE when you see a circle. Otherwise, just wait and do nothing.",408,21,,correct,high school / college,100,1570370875376,NA,68,NA,blue,1,circle,male,NA,NA,NA,NA,right,2115,space,grid,Sun Oct 06 2019 16:01:07 GMT+0200 (Central European Summer Time),1570370467748,circle,circle,6.7938,1,2,goNoGo_practice
8550,"Press SPACE when you see a circle. Otherwise, just wait and do nothing.",2003,21,,correct,high school / college,100,1570370875376,NA,68,NA,blue,1,square,male,NA,NA,NA,NA,right,1769,wait,grid,Sun Oct 06 2019 16:01:07 GMT+0200 (Central European Summer Time),1570370467748,square,circle,6.7938,1,3,goNoGo_practice
8550,"Press SPACE when you see a circle. Otherwise, just wait and do nothing.",2001,21,,correct,high school / college,100,1570370875376,NA,68,NA,blue,1,square,male,NA,NA,NA,NA,right,2676,wait,grid,Sun Oct 06 2019 16:01:07 GMT+0200 (Central European Summer Time),1570370467748,square,circle,6.7938,1,4,goNoGo_practice
8550,"Press SPACE when you see a circle. Otherwise, just wait and do nothing.",428,21,,correct,high school / college,100,1570370875376,NA,68,NA,blue,1,circle,male,NA,NA,NA,NA,right,2507,space,grid,Sun Oct 06 2019 16:01:07 GMT+0200 (Central European Summer Time),1570370467748,circle,circle,6.7938,1,5,goNoGo_practice
8550,NA,359,21,,incorrect,high school / college,100,1570370875376,NA,68,NA,blue,1,square,male,NA,NA,NA,NA,right,2276,space,grid,Sun Oct 06 2019 16:01:07 GMT+0200 (Central European Summer Time),1570370467748,square,circle,6.7938,1,1,goNoGo_main
8550,NA,2004,21,,correct,high school / college,100,1570370875376,NA,68,NA,blue,1,square,male,NA,NA,NA,NA,right,2559,wait,grid,Sun Oct 06 2019 16:01:07 GMT+0200 (Central European Summer Time),1570370467748,square,circle,6.7938,1,2,goNoGo_main
8550,NA,520,21,,correct,high school / college,100,1570370875376,NA,68,NA,blue,1,circle,male,NA,NA,NA,NA,right,2660,space,grid,Sun Oct 06 2019 16:01:07 GMT+0200 (Central European Summer Time),1570370467748,circle,circle,6.7938,1,3,goNoGo_main
8550,NA,1010,21,,correct,high school / college,100,1570370875376,NA,68,NA,blue,1,circle,male,NA,NA,NA,NA,right,2585,space,grid,Sun Oct 06 2019 16:01:07 GMT+0200 (Central European Summer Time),1570370467748,circle,circle,6.7938,1,4,goNoGo_main
8550,NA,2002,21,,correct,high school / college,100,1570370875376,NA,68,NA,blue,1,square,male,NA,NA,NA,NA,right,2028,wait,grid,Sun Oct 06 2019 16:01:07 GMT+0200 (Central European Summer Time),1570370467748,square,circle,6.7938,1,5,goNoGo_main
8550,NA,460,21,,correct,high school / college,100,1570370875376,NA,68,NA,blue,1,circle,male,NA,NA,NA,NA,right,2564,space,grid,Sun Oct 06 2019 16:01:07 GMT+0200 (Central European Summer Time),1570370467748,circle,circle,6.7938,1,6,goNoGo_main
8550,NA,528,21,,correct,high school / college,100,1570370875376,NA,68,NA,blue,1,circle,male,NA,NA,NA,NA,right,2481,space,grid,Sun Oct 06 2019 16:01:07 GMT+0200 (Central European Summer Time),1570370467748,circle,circle,6.7938,1,7,goNoGo_main
8550,NA,2004,21,,correct,high school / college,100,1570370875376,NA,68,NA,blue,1,square,male,NA,NA,NA,NA,right,2680,wait,grid,Sun Oct 06 2019 16:01:07 GMT+0200 (Central European Summer Time),1570370467748,square,circle,6.7938,1,8,goNoGo_main
8550,NA,418,21,,correct,high school / college,100,1570370875376,NA,68,NA,blue,1,circle,male,NA,NA,NA,NA,right,1400,space,grid,Sun Oct 06 2019 16:01:07 GMT+0200 (Central European Summer Time),1570370467748,circle,circle,6.7938,1,9,goNoGo_main
8550,NA,2004,21,,correct,high school / college,100,1570370875376,NA,68,NA,blue,1,square,male,NA,NA,NA,NA,right,1875,wait,grid,Sun Oct 06 2019 16:01:07 GMT+0200 (Central European Summer Time),1570370467748,square,circle,6.7938,1,10,goNoGo_main
8550,NA,2000,21,,correct,high school / college,100,1570370875376,NA,68,NA,blue,1,square,male,NA,NA,NA,NA,right,1768,wait,grid,Sun Oct 06 2019 16:01:07 GMT+0200 (Central European Summer Time),1570370467748,square,circle,6.7938,1,11,goNoGo_main
8550,NA,390,21,,correct,high school / college,100,1570370875376,NA,68,NA,blue,1,circle,male,NA,NA,NA,NA,right,1723,space,grid,Sun Oct 06 2019 16:01:07 GMT+0200 (Central European Summer Time),1570370467748,circle,circle,6.7938,1,12,goNoGo_main
8550,NA,2003,21,,correct,high school / college,100,1570370875376,NA,68,NA,blue,1,square,male,NA,NA,NA,NA,right,1242,wait,grid,Sun Oct 06 2019 16:01:07 GMT+0200 (Central European Summer Time),1570370467748,square,circle,6.7938,1,13,goNoGo_main
8550,NA,2304,21,,correct,high school / college,100,1570370875376,NA,68,NA,blue,1,square,male,NA,NA,NA,NA,right,1547,wait,grid,Sun Oct 06 2019 16:01:07 GMT+0200 (Central European Summer Time),1570370467748,square,circle,6.7938,1,14,goNoGo_main
8550,NA,451,21,,correct,high school / college,100,1570370875376,NA,68,NA,blue,1,circle,male,NA,NA,NA,NA,right,1376,space,grid,Sun Oct 06 2019 16:01:07 GMT+0200 (Central European Summer Time),1570370467748,circle,circle,6.7938,1,15,goNoGo_main
8550,NA,524,21,,correct,high school / college,100,1570370875376,NA,68,NA,blue,1,circle,male,NA,NA,NA,NA,right,1638,space,grid,Sun Oct 06 2019 16:01:07 GMT+0200 (Central European Summer Time),1570370467748,circle,circle,6.7938,1,16,goNoGo_main
8550,NA,2005,21,,correct,high school / college,100,1570370875376,NA,68,NA,blue,1,square,male,NA,NA,NA,NA,right,2120,wait,grid,Sun Oct 06 2019 16:01:07 GMT+0200 (Central European Summer Time),1570370467748,square,circle,6.7938,1,17,goNoGo_main
8550,NA,2433,21,,correct,high school / college,100,1570370875376,NA,68,NA,blue,1,square,male,NA,NA,NA,NA,right,1585,wait,grid,Sun Oct 06 2019 16:01:07 GMT+0200 (Central European Summer Time),1570370467748,square,circle,6.7938,1,18,goNoGo_main
8550,NA,409,21,,correct,high school / college,100,1570370875376,NA,68,NA,blue,1,circle,male,NA,NA,NA,NA,right,1878,space,grid,Sun Oct 06 2019 16:01:07 GMT+0200 (Central European Summer Time),1570370467748,circle,circle,6.7938,1,19,goNoGo_main
8550,NA,401,21,,correct,high school / college,100,1570370875376,NA,68,NA,blue,1,circle,male,NA,NA,NA,NA,right,2150,space,grid,Sun Oct 06 2019 16:01:07 GMT+0200 (Central European Summer Time),1570370467748,circle,circle,6.7938,1,20,goNoGo_main
8550,NA,1043,21,,correct,high school / college,100,1570370875376,square,68,square,blue,1,square,male,circle,f,j,f,right,1770,NA,grid,Sun Oct 06 2019 16:01:07 GMT+0200 (Central European Summer Time),1570370467748,NA,NA,6.7938,1,1,discrimination_practice
8550,NA,314,21,,correct,high school / college,100,1570370875376,circle,68,square,blue,1,circle,male,circle,f,j,j,right,2412,NA,grid,Sun Oct 06 2019 16:01:07 GMT+0200 (Central European Summer Time),1570370467748,NA,NA,6.7938,1,2,discrimination_practice
8550,NA,331,21,,correct,high school / college,100,1570370875376,circle,68,square,blue,1,circle,male,circle,f,j,j,right,1940,NA,grid,Sun Oct 06 2019 16:01:07 GMT+0200 (Central European Summer Time),1570370467748,NA,NA,6.7938,1,3,discrimination_practice
8550,NA,399,21,,correct,high school / college,100,1570370875376,square,68,square,blue,1,square,male,circle,f,j,f,right,2648,NA,grid,Sun Oct 06 2019 16:01:07 GMT+0200 (Central European Summer Time),1570370467748,NA,NA,6.7938,1,4,discrimination_practice
8550,NA,1519,21,,correct,high school / college,100,1570370875376,circle,68,square,blue,1,circle,male,circle,f,j,j,right,1743,NA,grid,Sun Oct 06 2019 16:01:07 GMT+0200 (Central European Summer Time),1570370467748,NA,NA,6.7938,1,5,discrimination_practice
8550,NA,380,21,,correct,high school / college,100,1570370875376,square,68,square,blue,1,square,male,circle,f,j,f,right,1745,NA,grid,Sun Oct 06 2019 16:01:07 GMT+0200 (Central European Summer Time),1570370467748,NA,NA,6.7938,1,1,discrimination_main
8550,NA,438,21,,correct,high school / college,100,1570370875376,square,68,square,blue,1,square,male,circle,f,j,f,right,2492,NA,grid,Sun Oct 06 2019 16:01:07 GMT+0200 (Central European Summer Time),1570370467748,NA,NA,6.7938,1,2,discrimination_main
8550,NA,508,21,,correct,high school / college,100,1570370875376,square,68,square,blue,1,square,male,circle,f,j,f,right,1798,NA,grid,Sun Oct 06 2019 16:01:07 GMT+0200 (Central European Summer Time),1570370467748,NA,NA,6.7938,1,3,discrimination_main
8550,NA,452,21,,correct,high school / college,100,1570370875376,circle,68,square,blue,1,circle,male,circle,f,j,j,right,1400,NA,grid,Sun Oct 06 2019 16:01:07 GMT+0200 (Central European Summer Time),1570370467748,NA,NA,6.7938,1,4,discrimination_main
8550,NA,452,21,,incorrect,high school / college,100,1570370875376,circle,68,square,blue,1,circle,male,circle,f,j,f,right,2617,NA,grid,Sun Oct 06 2019 16:01:07 GMT+0200 (Central European Summer Time),1570370467748,NA,NA,6.7938,1,5,discrimination_main
8550,NA,466,21,,correct,high school / college,100,1570370875376,circle,68,square,blue,1,circle,male,circle,f,j,j,right,1313,NA,grid,Sun Oct 06 2019 16:01:07 GMT+0200 (Central European Summer Time),1570370467748,NA,NA,6.7938,1,6,discrimination_main
8550,NA,430,21,,correct,high school / college,100,1570370875376,circle,68,square,blue,1,circle,male,circle,f,j,j,right,2361,NA,grid,Sun Oct 06 2019 16:01:07 GMT+0200 (Central European Summer Time),1570370467748,NA,NA,6.7938,1,7,discrimination_main
8550,NA,543,21,,correct,high school / college,100,1570370875376,square,68,square,blue,1,square,male,circle,f,j,f,right,1487,NA,grid,Sun Oct 06 2019 16:01:07 GMT+0200 (Central European Summer Time),1570370467748,NA,NA,6.7938,1,8,discrimination_main
8550,NA,467,21,,correct,high school / college,100,1570370875376,square,68,square,blue,1,square,male,circle,f,j,f,right,1203,NA,grid,Sun Oct 06 2019 16:01:07 GMT+0200 (Central European Summer Time),1570370467748,NA,NA,6.7938,1,9,discrimination_main
8550,NA,390,21,,correct,high school / college,100,1570370875376,square,68,square,blue,1,square,male,circle,f,j,f,right,1970,NA,grid,Sun Oct 06 2019 16:01:07 GMT+0200 (Central European Summer Time),1570370467748,NA,NA,6.7938,1,10,discrimination_main
8550,NA,455,21,,correct,high school / college,100,1570370875376,square,68,square,blue,1,square,male,circle,f,j,f,right,2108,NA,grid,Sun Oct 06 2019 16:01:07 GMT+0200 (Central European Summer Time),1570370467748,NA,NA,6.7938,1,11,discrimination_main
8550,NA,384,21,,correct,high school / college,100,1570370875376,square,68,square,blue,1,square,male,circle,f,j,f,right,2036,NA,grid,Sun Oct 06 2019 16:01:07 GMT+0200 (Central European Summer Time),1570370467748,NA,NA,6.7938,1,12,discrimination_main
8550,NA,434,21,,correct,high school / college,100,1570370875376,circle,68,square,blue,1,circle,male,circle,f,j,j,right,1455,NA,grid,Sun Oct 06 2019 16:01:07 GMT+0200 (Central European Summer Time),1570370467748,NA,NA,6.7938,1,13,discrimination_main
8550,NA,355,21,,correct,high school / college,100,1570370875376,circle,68,square,blue,1,circle,male,circle,f,j,j,right,1804,NA,grid,Sun Oct 06 2019 16:01:07 GMT+0200 (Central European Summer Time),1570370467748,NA,NA,6.7938,1,14,discrimination_main
8550,NA,348,21,,correct,high school / college,100,1570370875376,circle,68,square,blue,1,circle,male,circle,f,j,j,right,1825,NA,grid,Sun Oct 06 2019 16:01:07 GMT+0200 (Central European Summer Time),1570370467748,NA,NA,6.7938,1,15,discrimination_main
8550,NA,369,21,,correct,high school / college,100,1570370875376,square,68,square,blue,1,square,male,circle,f,j,f,right,1912,NA,grid,Sun Oct 06 2019 16:01:07 GMT+0200 (Central European Summer Time),1570370467748,NA,NA,6.7938,1,16,discrimination_main
8550,NA,442,21,,correct,high school / college,100,1570370875376,circle,68,square,blue,1,circle,male,circle,f,j,j,right,2625,NA,grid,Sun Oct 06 2019 16:01:07 GMT+0200 (Central European Summer Time),1570370467748,NA,NA,6.7938,1,17,discrimination_main
8550,NA,718,21,,correct,high school / college,100,1570370875376,square,68,square,blue,1,square,male,circle,f,j,f,right,1566,NA,grid,Sun Oct 06 2019 16:01:07 GMT+0200 (Central European Summer Time),1570370467748,NA,NA,6.7938,1,18,discrimination_main
8550,NA,513,21,,correct,high school / college,100,1570370875376,circle,68,square,blue,1,circle,male,circle,f,j,j,right,1468,NA,grid,Sun Oct 06 2019 16:01:07 GMT+0200 (Central European Summer Time),1570370467748,NA,NA,6.7938,1,19,discrimination_main
8550,NA,729,21,,correct,high school / college,100,1570370875376,circle,68,square,blue,1,circle,male,circle,f,j,j,right,1991,NA,grid,Sun Oct 06 2019 16:01:07 GMT+0200 (Central European Summer Time),1570370467748,NA,NA,6.7938,1,20,discrimination_main
8549,Press SPACE when you see a shape on the screen,617,23,,correct,high school / college,100,1570370744172,NA,68,NA,blue,1,square,male,NA,NA,NA,NA,Righthanded,1423,space,grid,Sun Oct 06 2019 15:53:03 GMT+0200 (Mitteleuropäische Sommerzeit),1570369983793,square,square,12.6729833333333,1,1,reaction_practice
8549,Press SPACE when you see a shape on the screen,439,23,,correct,high school / college,100,1570370744172,NA,68,NA,blue,1,square,male,NA,NA,NA,NA,Righthanded,2596,space,grid,Sun Oct 06 2019 15:53:03 GMT+0200 (Mitteleuropäische Sommerzeit),1570369983793,square,square,12.6729833333333,1,2,reaction_practice
8549,Press SPACE when you see a shape on the screen,3800,23,,correct,high school / college,100,1570370744172,NA,68,NA,blue,1,circle,male,NA,NA,NA,NA,Righthanded,1664,space,grid,Sun Oct 06 2019 15:53:03 GMT+0200 (Mitteleuropäische Sommerzeit),1570369983793,circle,circle,12.6729833333333,1,3,reaction_practice
8549,Press SPACE when you see a shape on the screen,318,23,,correct,high school / college,100,1570370744172,NA,68,NA,blue,1,circle,male,NA,NA,NA,NA,Righthanded,2072,space,grid,Sun Oct 06 2019 15:53:03 GMT+0200 (Mitteleuropäische Sommerzeit),1570369983793,circle,circle,12.6729833333333,1,4,reaction_practice
8549,Press SPACE when you see a shape on the screen,327,23,,correct,high school / college,100,1570370744172,NA,68,NA,blue,1,square,male,NA,NA,NA,NA,Righthanded,2680,space,grid,Sun Oct 06 2019 15:53:03 GMT+0200 (Mitteleuropäische Sommerzeit),1570369983793,square,square,12.6729833333333,1,5,reaction_practice
8549,NA,280,23,,correct,high school / college,100,1570370744172,NA,68,NA,blue,1,circle,male,NA,NA,NA,NA,Righthanded,1493,space,grid,Sun Oct 06 2019 15:53:03 GMT+0200 (Mitteleuropäische Sommerzeit),1570369983793,circle,circle,12.6729833333333,1,1,reaction_main
8549,NA,168,23,,correct,high school / college,100,1570370744172,NA,68,NA,blue,1,square,male,NA,NA,NA,NA,Righthanded,1831,space,grid,Sun Oct 06 2019 15:53:03 GMT+0200 (Mitteleuropäische Sommerzeit),1570369983793,square,square,12.6729833333333,1,2,reaction_main
8549,NA,298,23,,correct,high school / college,100,1570370744172,NA,68,NA,blue,1,square,male,NA,NA,NA,NA,Righthanded,2246,space,grid,Sun Oct 06 2019 15:53:03 GMT+0200 (Mitteleuropäische Sommerzeit),1570369983793,square,square,12.6729833333333,1,3,reaction_main
8549,NA,285,23,,correct,high school / college,100,1570370744172,NA,68,NA,blue,1,square,male,NA,NA,NA,NA,Righthanded,1826,space,grid,Sun Oct 06 2019 15:53:03 GMT+0200 (Mitteleuropäische Sommerzeit),1570369983793,square,square,12.6729833333333,1,4,reaction_main
8549,NA,304,23,,correct,high school / college,100,1570370744172,NA,68,NA,blue,1,square,male,NA,NA,NA,NA,Righthanded,1431,space,grid,Sun Oct 06 2019 15:53:03 GMT+0200 (Mitteleuropäische Sommerzeit),1570369983793,square,square,12.6729833333333,1,5,reaction_main
8549,NA,235,23,,correct,high school / college,100,1570370744172,NA,68,NA,blue,1,square,male,NA,NA,NA,NA,Righthanded,1932,space,grid,Sun Oct 06 2019 15:53:03 GMT+0200 (Mitteleuropäische Sommerzeit),1570369983793,square,square,12.6729833333333,1,6,reaction_main
8549,NA,237,23,,correct,high school / college,100,1570370744172,NA,68,NA,blue,1,square,male,NA,NA,NA,NA,Righthanded,2578,space,grid,Sun Oct 06 2019 15:53:03 GMT+0200 (Mitteleuropäische Sommerzeit),1570369983793,square,square,12.6729833333333,1,7,reaction_main
8549,NA,275,23,,correct,high school / college,100,1570370744172,NA,68,NA,blue,1,circle,male,NA,NA,NA,NA,Righthanded,2692,space,grid,Sun Oct 06 2019 15:53:03 GMT+0200 (Mitteleuropäische Sommerzeit),1570369983793,circle,circle,12.6729833333333,1,8,reaction_main
8549,NA,364,23,,correct,high school / college,100,1570370744172,NA,68,NA,blue,1,square,male,NA,NA,NA,NA,Righthanded,1460,space,grid,Sun Oct 06 2019 15:53:03 GMT+0200 (Mitteleuropäische Sommerzeit),1570369983793,square,square,12.6729833333333,1,9,reaction_main
8549,NA,267,23,,correct,high school / college,100,1570370744172,NA,68,NA,blue,1,circle,male,NA,NA,NA,NA,Righthanded,2364,space,grid,Sun Oct 06 2019 15:53:03 GMT+0200 (Mitteleuropäische Sommerzeit),1570369983793,circle,circle,12.6729833333333,1,10,reaction_main
8549,NA,2244,23,,correct,high school / college,100,1570370744172,NA,68,NA,blue,1,square,male,NA,NA,NA,NA,Righthanded,1235,space,grid,Sun Oct 06 2019 15:53:03 GMT+0200 (Mitteleuropäische Sommerzeit),1570369983793,square,square,12.6729833333333,1,11,reaction_main
8549,NA,266,23,,correct,high school / college,100,1570370744172,NA,68,NA,blue,1,circle,male,NA,NA,NA,NA,Righthanded,1973,space,grid,Sun Oct 06 2019 15:53:03 GMT+0200 (Mitteleuropäische Sommerzeit),1570369983793,circle,circle,12.6729833333333,1,12,reaction_main
8549,NA,319,23,,correct,high school / college,100,1570370744172,NA,68,NA,blue,1,circle,male,NA,NA,NA,NA,Righthanded,1256,space,grid,Sun Oct 06 2019 15:53:03 GMT+0200 (Mitteleuropäische Sommerzeit),1570369983793,circle,circle,12.6729833333333,1,13,reaction_main
8549,NA,256,23,,correct,high school / college,100,1570370744172,NA,68,NA,blue,1,square,male,NA,NA,NA,NA,Righthanded,2255,space,grid,Sun Oct 06 2019 15:53:03 GMT+0200 (Mitteleuropäische Sommerzeit),1570369983793,square,square,12.6729833333333,1,14,reaction_main
