submission_id,RT,condition,correctness,class,experiment_id,key_pressed,p,pause,q,target_object,target_position,timeSpent,trial_number,trial_type
7432,1239,incongruent,correct,Intro Cogn. Neuro-Psychology,52,q,circle,1896,square,square,right,7.56541666666667,1,practice
7432,938,incongruent,correct,Intro Cogn. Neuro-Psychology,52,q,circle,1289,square,square,right,7.56541666666667,2,practice
7432,744,incongruent,correct,Intro Cogn. Neuro-Psychology,52,q,circle,1705,square,square,right,7.56541666666667,3,practice
7432,528,incongruent,correct,Intro Cogn. Neuro-Psychology,52,q,circle,2115,square,square,right,7.56541666666667,4,practice
7432,706,incongruent,correct,Intro Cogn. Neuro-Psychology,52,p,circle,2446,square,circle,left,7.56541666666667,5,practice
7432,547,congruent,correct,Intro Cogn. Neuro-Psychology,52,p,circle,2289,square,circle,right,7.56541666666667,6,practice
7432,591,incongruent,correct,Intro Cogn. Neuro-Psychology,52,q,circle,2057,square,square,right,7.56541666666667,7,practice
7432,652,incongruent,correct,Intro Cogn. Neuro-Psychology,52,p,circle,2513,square,circle,left,7.56541666666667,8,practice
7432,627,incongruent,correct,Intro Cogn. Neuro-Psychology,52,q,circle,1865,square,square,right,7.56541666666667,9,practice
7432,485,incongruent,incorrect,Intro Cogn. Neuro-Psychology,52,q,circle,2387,square,circle,left,7.56541666666667,10,practice
7432,515,incongruent,correct,Intro Cogn. Neuro-Psychology,52,q,circle,2420,square,square,right,7.56541666666667,11,practice
7432,649,incongruent,correct,Intro Cogn. Neuro-Psychology,52,q,circle,2266,square,square,right,7.56541666666667,12,practice
7432,588,incongruent,correct,Intro Cogn. Neuro-Psychology,52,p,circle,2532,square,circle,left,7.56541666666667,13,practice
7432,682,congruent,correct,Intro Cogn. Neuro-Psychology,52,q,circle,2585,square,square,left,7.56541666666667,14,practice
7432,652,incongruent,correct,Intro Cogn. Neuro-Psychology,52,q,circle,1200,square,square,right,7.56541666666667,15,practice
7432,575,congruent,correct,Intro Cogn. Neuro-Psychology,52,p,circle,2667,square,circle,right,7.56541666666667,16,practice
7432,529,congruent,correct,Intro Cogn. Neuro-Psychology,52,p,circle,1523,square,circle,right,7.56541666666667,17,practice
7432,697,congruent,correct,Intro Cogn. Neuro-Psychology,52,q,circle,2348,square,square,left,7.56541666666667,18,practice
7432,559,incongruent,correct,Intro Cogn. Neuro-Psychology,52,p,circle,2568,square,circle,left,7.56541666666667,19,practice
7432,479,incongruent,correct,Intro Cogn. Neuro-Psychology,52,q,circle,1406,square,square,right,7.56541666666667,20,practice
7432,735,incongruent,correct,Intro Cogn. Neuro-Psychology,52,p,circle,1537,square,circle,left,7.56541666666667,1,main
7432,557,incongruent,correct,Intro Cogn. Neuro-Psychology,52,p,circle,1271,square,circle,left,7.56541666666667,2,main
7432,455,congruent,correct,Intro Cogn. Neuro-Psychology,52,p,circle,2494,square,circle,right,7.56541666666667,3,main
7432,376,congruent,correct,Intro Cogn. Neuro-Psychology,52,q,circle,2586,square,square,left,7.56541666666667,4,main
7432,626,incongruent,correct,Intro Cogn. Neuro-Psychology,52,q,circle,1578,square,square,right,7.56541666666667,5,main
7432,581,congruent,correct,Intro Cogn. Neuro-Psychology,52,q,circle,2388,square,square,left,7.56541666666667,6,main
7432,571,congruent,correct,Intro Cogn. Neuro-Psychology,52,p,circle,2054,square,circle,right,7.56541666666667,7,main
7432,560,congruent,correct,Intro Cogn. Neuro-Psychology,52,p,circle,2472,square,circle,right,7.56541666666667,8,main
7432,537,incongruent,correct,Intro Cogn. Neuro-Psychology,52,p,circle,1941,square,circle,left,7.56541666666667,9,main
7432,410,congruent,correct,Intro Cogn. Neuro-Psychology,52,p,circle,1397,square,circle,right,7.56541666666667,10,main
7432,537,incongruent,correct,Intro Cogn. Neuro-Psychology,52,q,circle,2497,square,square,right,7.56541666666667,11,main
7432,539,incongruent,correct,Intro Cogn. Neuro-Psychology,52,q,circle,1312,square,square,right,7.56541666666667,12,main
7432,633,congruent,incorrect,Intro Cogn. Neuro-Psychology,52,p,circle,2518,square,square,left,7.56541666666667,13,main
7432,590,congruent,correct,Intro Cogn. Neuro-Psychology,52,q,circle,1895,square,square,left,7.56541666666667,14,main
7432,450,congruent,correct,Intro Cogn. Neuro-Psychology,52,q,circle,2657,square,square,left,7.56541666666667,15,main
7432,429,congruent,correct,Intro Cogn. Neuro-Psychology,52,q,circle,2029,square,square,left,7.56541666666667,16,main
7432,557,incongruent,correct,Intro Cogn. Neuro-Psychology,52,p,circle,1277,square,circle,left,7.56541666666667,17,main
7432,611,congruent,correct,Intro Cogn. Neuro-Psychology,52,q,circle,1340,square,square,left,7.56541666666667,18,main
7432,533,incongruent,correct,Intro Cogn. Neuro-Psychology,52,q,circle,1264,square,square,right,7.56541666666667,19,main
7432,495,incongruent,correct,Intro Cogn. Neuro-Psychology,52,q,circle,2294,square,square,right,7.56541666666667,20,main
7432,490,incongruent,correct,Intro Cogn. Neuro-Psychology,52,p,circle,2079,square,circle,left,7.56541666666667,21,main
7432,463,congruent,correct,Intro Cogn. Neuro-Psychology,52,q,circle,2679,square,square,left,7.56541666666667,22,main
7432,445,incongruent,correct,Intro Cogn. Neuro-Psychology,52,q,circle,2527,square,square,right,7.56541666666667,23,main
7432,537,incongruent,correct,Intro Cogn. Neuro-Psychology,52,p,circle,2371,square,circle,left,7.56541666666667,24,main
7432,511,incongruent,correct,Intro Cogn. Neuro-Psychology,52,p,circle,1841,square,circle,left,7.56541666666667,25,main
7432,510,congruent,correct,Intro Cogn. Neuro-Psychology,52,q,circle,2464,square,square,left,7.56541666666667,26,main
7432,470,congruent,correct,Intro Cogn. Neuro-Psychology,52,q,circle,1261,square,square,left,7.56541666666667,27,main
7432,483,incongruent,correct,Intro Cogn. Neuro-Psychology,52,p,circle,1579,square,circle,left,7.56541666666667,28,main
7432,669,congruent,correct,Intro Cogn. Neuro-Psychology,52,p,circle,1394,square,circle,right,7.56541666666667,29,main
7432,426,congruent,correct,Intro Cogn. Neuro-Psychology,52,p,circle,2407,square,circle,right,7.56541666666667,30,main
7432,506,incongruent,correct,Intro Cogn. Neuro-Psychology,52,p,circle,2525,square,circle,left,7.56541666666667,31,main
7432,449,congruent,correct,Intro Cogn. Neuro-Psychology,52,p,circle,2543,square,circle,right,7.56541666666667,32,main
7432,494,congruent,correct,Intro Cogn. Neuro-Psychology,52,p,circle,1399,square,circle,right,7.56541666666667,33,main
7432,531,incongruent,correct,Intro Cogn. Neuro-Psychology,52,q,circle,1402,square,square,right,7.56541666666667,34,main
7432,630,congruent,correct,Intro Cogn. Neuro-Psychology,52,q,circle,1431,square,square,left,7.56541666666667,35,main
7432,496,congruent,correct,Intro Cogn. Neuro-Psychology,52,q,circle,1379,square,square,left,7.56541666666667,36,main
7432,488,incongruent,correct,Intro Cogn. Neuro-Psychology,52,q,circle,2169,square,square,right,7.56541666666667,37,main
7432,517,congruent,correct,Intro Cogn. Neuro-Psychology,52,q,circle,2340,square,square,left,7.56541666666667,38,main
7432,412,congruent,correct,Intro Cogn. Neuro-Psychology,52,q,circle,2674,square,square,left,7.56541666666667,39,main
7432,529,congruent,correct,Intro Cogn. Neuro-Psychology,52,p,circle,1801,square,circle,right,7.56541666666667,40,main
7432,418,congruent,correct,Intro Cogn. Neuro-Psychology,52,q,circle,2430,square,square,left,7.56541666666667,41,main
7432,439,incongruent,incorrect,Intro Cogn. Neuro-Psychology,52,q,circle,1262,square,circle,left,7.56541666666667,42,main
7432,432,congruent,correct,Intro Cogn. Neuro-Psychology,52,p,circle,2559,square,circle,right,7.56541666666667,43,main
7432,566,incongruent,correct,Intro Cogn. Neuro-Psychology,52,p,circle,1511,square,circle,left,7.56541666666667,44,main
7432,525,incongruent,correct,Intro Cogn. Neuro-Psychology,52,p,circle,2649,square,circle,left,7.56541666666667,45,main
7432,484,incongruent,correct,Intro Cogn. Neuro-Psychology,52,q,circle,2064,square,square,right,7.56541666666667,46,main
7432,623,congruent,correct,Intro Cogn. Neuro-Psychology,52,q,circle,1590,square,square,left,7.56541666666667,47,main
7432,452,congruent,correct,Intro Cogn. Neuro-Psychology,52,q,circle,2462,square,square,left,7.56541666666667,48,main
7432,438,congruent,correct,Intro Cogn. Neuro-Psychology,52,q,circle,2456,square,square,left,7.56541666666667,49,main
7432,536,incongruent,correct,Intro Cogn. Neuro-Psychology,52,p,circle,1428,square,circle,left,7.56541666666667,50,main
7432,583,incongruent,correct,Intro Cogn. Neuro-Psychology,52,p,circle,2371,square,circle,left,7.56541666666667,51,main
7432,501,incongruent,correct,Intro Cogn. Neuro-Psychology,52,p,circle,2683,square,circle,left,7.56541666666667,52,main
7432,8702,incongruent,correct,Intro Cogn. Neuro-Psychology,52,q,circle,1477,square,square,right,7.56541666666667,53,main
7432,597,incongruent,correct,Intro Cogn. Neuro-Psychology,52,p,circle,2039,square,circle,left,7.56541666666667,54,main
7432,581,congruent,correct,Intro Cogn. Neuro-Psychology,52,p,circle,1946,square,circle,right,7.56541666666667,55,main
7432,444,congruent,correct,Intro Cogn. Neuro-Psychology,52,p,circle,1846,square,circle,right,7.56541666666667,56,main
7432,431,congruent,correct,Intro Cogn. Neuro-Psychology,52,p,circle,1473,square,circle,right,7.56541666666667,57,main
7432,350,incongruent,incorrect,Intro Cogn. Neuro-Psychology,52,p,circle,2098,square,square,right,7.56541666666667,58,main
7432,478,congruent,correct,Intro Cogn. Neuro-Psychology,52,q,circle,1953,square,square,left,7.56541666666667,59,main
7432,476,congruent,correct,Intro Cogn. Neuro-Psychology,52,p,circle,1657,square,circle,right,7.56541666666667,60,main
7432,571,incongruent,correct,Intro Cogn. Neuro-Psychology,52,p,circle,2285,square,circle,left,7.56541666666667,61,main
7432,387,incongruent,incorrect,Intro Cogn. Neuro-Psychology,52,q,circle,2532,square,circle,left,7.56541666666667,62,main
7432,603,congruent,correct,Intro Cogn. Neuro-Psychology,52,p,circle,2636,square,circle,right,7.56541666666667,63,main
7432,615,incongruent,correct,Intro Cogn. Neuro-Psychology,52,q,circle,2652,square,square,right,7.56541666666667,64,main
7432,570,congruent,correct,Intro Cogn. Neuro-Psychology,52,q,circle,2032,square,square,left,7.56541666666667,65,main
7432,543,incongruent,correct,Intro Cogn. Neuro-Psychology,52,q,circle,1403,square,square,right,7.56541666666667,66,main
7432,456,congruent,correct,Intro Cogn. Neuro-Psychology,52,p,circle,2134,square,circle,right,7.56541666666667,67,main
7432,528,incongruent,correct,Intro Cogn. Neuro-Psychology,52,p,circle,2081,square,circle,left,7.56541666666667,68,main
7432,467,congruent,correct,Intro Cogn. Neuro-Psychology,52,p,circle,2664,square,circle,right,7.56541666666667,69,main
7432,409,congruent,correct,Intro Cogn. Neuro-Psychology,52,q,circle,1471,square,square,left,7.56541666666667,70,main
7432,406,congruent,correct,Intro Cogn. Neuro-Psychology,52,p,circle,1438,square,circle,right,7.56541666666667,71,main
7432,412,congruent,correct,Intro Cogn. Neuro-Psychology,52,q,circle,1319,square,square,left,7.56541666666667,72,main
7432,537,incongruent,correct,Intro Cogn. Neuro-Psychology,52,p,circle,2529,square,circle,left,7.56541666666667,73,main
7432,579,congruent,correct,Intro Cogn. Neuro-Psychology,52,p,circle,2095,square,circle,right,7.56541666666667,74,main
7432,575,incongruent,correct,Intro Cogn. Neuro-Psychology,52,p,circle,1727,square,circle,left,7.56541666666667,75,main
7432,410,congruent,correct,Intro Cogn. Neuro-Psychology,52,p,circle,2526,square,circle,right,7.56541666666667,76,main
7432,400,congruent,correct,Intro Cogn. Neuro-Psychology,52,p,circle,1396,square,circle,right,7.56541666666667,77,main
7432,383,incongruent,incorrect,Intro Cogn. Neuro-Psychology,52,p,circle,1354,square,square,right,7.56541666666667,78,main
7432,552,incongruent,correct,Intro Cogn. Neuro-Psychology,52,p,circle,1554,square,circle,left,7.56541666666667,79,main
7432,588,incongruent,correct,Intro Cogn. Neuro-Psychology,52,p,circle,2410,square,circle,left,7.56541666666667,80,main
7432,441,congruent,correct,Intro Cogn. Neuro-Psychology,52,p,circle,1269,square,circle,right,7.56541666666667,81,main
7432,612,incongruent,correct,Intro Cogn. Neuro-Psychology,52,q,circle,1953,square,square,right,7.56541666666667,82,main
7432,570,incongruent,correct,Intro Cogn. Neuro-Psychology,52,q,circle,1231,square,square,right,7.56541666666667,83,main
7432,557,congruent,correct,Intro Cogn. Neuro-Psychology,52,q,circle,2508,square,square,left,7.56541666666667,84,main
7432,538,incongruent,correct,Intro Cogn. Neuro-Psychology,52,q,circle,1223,square,square,right,7.56541666666667,85,main
7432,494,incongruent,correct,Intro Cogn. Neuro-Psychology,52,q,circle,2652,square,square,right,7.56541666666667,86,main
7432,549,incongruent,correct,Intro Cogn. Neuro-Psychology,52,p,circle,1870,square,circle,left,7.56541666666667,87,main
7432,520,congruent,correct,Intro Cogn. Neuro-Psychology,52,q,circle,1785,square,square,left,7.56541666666667,88,main
7432,523,congruent,correct,Intro Cogn. Neuro-Psychology,52,p,circle,2411,square,circle,right,7.56541666666667,89,main
7432,616,incongruent,correct,Intro Cogn. Neuro-Psychology,52,q,circle,1897,square,square,right,7.56541666666667,90,main
7432,523,incongruent,correct,Intro Cogn. Neuro-Psychology,52,q,circle,2083,square,square,right,7.56541666666667,91,main
7432,547,incongruent,correct,Intro Cogn. Neuro-Psychology,52,q,circle,1614,square,square,right,7.56541666666667,92,main
7432,533,congruent,correct,Intro Cogn. Neuro-Psychology,52,q,circle,2042,square,square,left,7.56541666666667,93,main
7432,484,incongruent,correct,Intro Cogn. Neuro-Psychology,52,q,circle,2058,square,square,right,7.56541666666667,94,main
7432,433,congruent,correct,Intro Cogn. Neuro-Psychology,52,q,circle,2254,square,square,left,7.56541666666667,95,main
7432,549,incongruent,correct,Intro Cogn. Neuro-Psychology,52,p,circle,1654,square,circle,left,7.56541666666667,96,main
7432,452,incongruent,correct,Intro Cogn. Neuro-Psychology,52,q,circle,1642,square,square,right,7.56541666666667,97,main
7432,600,incongruent,correct,Intro Cogn. Neuro-Psychology,52,p,circle,1944,square,circle,left,7.56541666666667,98,main
7432,477,congruent,correct,Intro Cogn. Neuro-Psychology,52,q,circle,1655,square,square,left,7.56541666666667,99,main
7432,645,incongruent,correct,Intro Cogn. Neuro-Psychology,52,p,circle,2176,square,circle,left,7.56541666666667,100,main
7433,406,incongruent,incorrect,Intro Cogn. Neuro-Psychology,52,p,circle,1543,square,square,right,6.06266666666667,1,practice
7433,524,incongruent,incorrect,Intro Cogn. Neuro-Psychology,52,p,circle,1954,square,square,right,6.06266666666667,2,practice
7433,511,incongruent,correct,Intro Cogn. Neuro-Psychology,52,q,circle,2413,square,square,right,6.06266666666667,3,practice
7433,396,congruent,correct,Intro Cogn. Neuro-Psychology,52,q,circle,1221,square,square,left,6.06266666666667,4,practice
7433,752,incongruent,correct,Intro Cogn. Neuro-Psychology,52,q,circle,2055,square,square,right,6.06266666666667,5,practice
7433,349,incongruent,incorrect,Intro Cogn. Neuro-Psychology,52,q,circle,1436,square,circle,left,6.06266666666667,6,practice
7433,424,congruent,correct,Intro Cogn. Neuro-Psychology,52,p,circle,2282,square,circle,right,6.06266666666667,7,practice
7433,348,congruent,correct,Intro Cogn. Neuro-Psychology,52,q,circle,1885,square,square,left,6.06266666666667,8,practice
7433,405,congruent,correct,Intro Cogn. Neuro-Psychology,52,p,circle,2298,square,circle,right,6.06266666666667,9,practice
7433,541,incongruent,correct,Intro Cogn. Neuro-Psychology,52,q,circle,2165,square,square,right,6.06266666666667,10,practice
7433,453,congruent,correct,Intro Cogn. Neuro-Psychology,52,p,circle,2143,square,circle,right,6.06266666666667,11,practice
7433,395,congruent,correct,Intro Cogn. Neuro-Psychology,52,q,circle,1670,square,square,left,6.06266666666667,12,practice
7433,404,congruent,correct,Intro Cogn. Neuro-Psychology,52,q,circle,2210,square,square,left,6.06266666666667,13,practice
7433,571,incongruent,correct,Intro Cogn. Neuro-Psychology,52,p,circle,1992,square,circle,left,6.06266666666667,14,practice
7433,526,incongruent,correct,Intro Cogn. Neuro-Psychology,52,q,circle,1548,square,square,right,6.06266666666667,15,practice
7433,429,incongruent,incorrect,Intro Cogn. Neuro-Psychology,52,q,circle,2218,square,circle,left,6.06266666666667,16,practice
7433,571,incongruent,correct,Intro Cogn. Neuro-Psychology,52,q,circle,1766,square,square,right,6.06266666666667,17,practice
7433,439,incongruent,incorrect,Intro Cogn. Neuro-Psychology,52,p,circle,2162,square,square,right,6.06266666666667,18,practice
7433,350,congruent,correct,Intro Cogn. Neuro-Psychology,52,q,circle,1345,square,square,left,6.06266666666667,19,practice
7433,346,congruent,correct,Intro Cogn. Neuro-Psychology,52,q,circle,1734,square,square,left,6.06266666666667,20,practice
7433,453,congruent,correct,Intro Cogn. Neuro-Psychology,52,p,circle,2618,square,circle,right,6.06266666666667,1,main
7433,363,congruent,correct,Intro Cogn. Neuro-Psychology,52,q,circle,2607,square,square,left,6.06266666666667,2,main
7433,513,incongruent,correct,Intro Cogn. Neuro-Psychology,52,p,circle,1304,square,circle,left,6.06266666666667,3,main
7433,493,incongruent,correct,Intro Cogn. Neuro-Psychology,52,q,circle,1628,square,square,right,6.06266666666667,4,main
7433,514,incongruent,correct,Intro Cogn. Neuro-Psychology,52,p,circle,2557,square,circle,left,6.06266666666667,5,main
7433,482,congruent,correct,Intro Cogn. Neuro-Psychology,52,p,circle,2270,square,circle,right,6.06266666666667,6,main
7433,430,incongruent,correct,Intro Cogn. Neuro-Psychology,52,p,circle,2562,square,circle,left,6.06266666666667,7,main
7433,509,incongruent,correct,Intro Cogn. Neuro-Psychology,52,q,circle,2172,square,square,right,6.06266666666667,8,main
7433,481,incongruent,correct,Intro Cogn. Neuro-Psychology,52,q,circle,2186,square,square,right,6.06266666666667,9,main
7433,422,incongruent,correct,Intro Cogn. Neuro-Psychology,52,q,circle,1666,square,square,right,6.06266666666667,10,main
7433,383,congruent,correct,Intro Cogn. Neuro-Psychology,52,q,circle,2353,square,square,left,6.06266666666667,11,main
7433,435,incongruent,correct,Intro Cogn. Neuro-Psychology,52,q,circle,1494,square,square,right,6.06266666666667,12,main
7433,434,incongruent,correct,Intro Cogn. Neuro-Psychology,52,p,circle,1415,square,circle,left,6.06266666666667,13,main
7433,481,incongruent,correct,Intro Cogn. Neuro-Psychology,52,p,circle,1421,square,circle,left,6.06266666666667,14,main
7433,389,congruent,correct,Intro Cogn. Neuro-Psychology,52,p,circle,2023,square,circle,right,6.06266666666667,15,main
7433,458,incongruent,correct,Intro Cogn. Neuro-Psychology,52,q,circle,1288,square,square,right,6.06266666666667,16,main
7433,464,congruent,correct,Intro Cogn. Neuro-Psychology,52,p,circle,1627,square,circle,right,6.06266666666667,17,main
7433,488,incongruent,correct,Intro Cogn. Neuro-Psychology,52,p,circle,1599,square,circle,left,6.06266666666667,18,main
7433,462,incongruent,correct,Intro Cogn. Neuro-Psychology,52,q,circle,2010,square,square,right,6.06266666666667,19,main
7433,523,incongruent,correct,Intro Cogn. Neuro-Psychology,52,q,circle,2508,square,square,right,6.06266666666667,20,main
7433,490,incongruent,correct,Intro Cogn. Neuro-Psychology,52,q,circle,2691,square,square,right,6.06266666666667,21,main
7433,446,incongruent,correct,Intro Cogn. Neuro-Psychology,52,q,circle,2657,square,square,right,6.06266666666667,22,main
7433,381,congruent,correct,Intro Cogn. Neuro-Psychology,52,q,circle,1405,square,square,left,6.06266666666667,23,main
7433,431,incongruent,correct,Intro Cogn. Neuro-Psychology,52,q,circle,1538,square,square,right,6.06266666666667,24,main
7433,388,incongruent,correct,Intro Cogn. Neuro-Psychology,52,q,circle,1430,square,square,right,6.06266666666667,25,main
7433,352,incongruent,correct,Intro Cogn. Neuro-Psychology,52,q,circle,1439,square,square,right,6.06266666666667,26,main
7433,362,congruent,correct,Intro Cogn. Neuro-Psychology,52,q,circle,1305,square,square,left,6.06266666666667,27,main
7433,352,incongruent,correct,Intro Cogn. Neuro-Psychology,52,q,circle,2550,square,square,right,6.06266666666667,28,main
7433,469,incongruent,correct,Intro Cogn. Neuro-Psychology,52,q,circle,2269,square,square,right,6.06266666666667,29,main
7433,316,incongruent,incorrect,Intro Cogn. Neuro-Psychology,52,q,circle,2118,square,circle,left,6.06266666666667,30,main
7433,444,incongruent,correct,Intro Cogn. Neuro-Psychology,52,q,circle,1539,square,square,right,6.06266666666667,31,main
7433,411,incongruent,correct,Intro Cogn. Neuro-Psychology,52,q,circle,2061,square,square,right,6.06266666666667,32,main
7433,547,incongruent,correct,Intro Cogn. Neuro-Psychology,52,p,circle,2164,square,circle,left,6.06266666666667,33,main
7433,480,congruent,correct,Intro Cogn. Neuro-Psychology,52,p,circle,1618,square,circle,right,6.06266666666667,34,main
7433,415,congruent,correct,Intro Cogn. Neuro-Psychology,52,p,circle,2530,square,circle,right,6.06266666666667,35,main
7433,470,incongruent,correct,Intro Cogn. Neuro-Psychology,52,q,circle,2513,square,square,right,6.06266666666667,36,main
7433,429,congruent,correct,Intro Cogn. Neuro-Psychology,52,q,circle,2484,square,square,left,6.06266666666667,37,main
7433,493,incongruent,correct,Intro Cogn. Neuro-Psychology,52,q,circle,2254,square,square,right,6.06266666666667,38,main
7433,520,congruent,correct,Intro Cogn. Neuro-Psychology,52,p,circle,2340,square,circle,right,6.06266666666667,39,main
7433,455,congruent,correct,Intro Cogn. Neuro-Psychology,52,p,circle,1987,square,circle,right,6.06266666666667,40,main
7433,389,congruent,correct,Intro Cogn. Neuro-Psychology,52,q,circle,1587,square,square,left,6.06266666666667,41,main
7433,489,incongruent,correct,Intro Cogn. Neuro-Psychology,52,p,circle,1843,square,circle,left,6.06266666666667,42,main
7433,439,congruent,correct,Intro Cogn. Neuro-Psychology,52,p,circle,2464,square,circle,right,6.06266666666667,43,main
7433,425,congruent,correct,Intro Cogn. Neuro-Psychology,52,q,circle,1697,square,square,left,6.06266666666667,44,main
7433,427,congruent,correct,Intro Cogn. Neuro-Psychology,52,p,circle,2157,square,circle,right,6.06266666666667,45,main
7433,396,congruent,correct,Intro Cogn. Neuro-Psychology,52,q,circle,1436,square,square,left,6.06266666666667,46,main
7433,502,incongruent,correct,Intro Cogn. Neuro-Psychology,52,p,circle,2028,square,circle,left,6.06266666666667,47,main
7433,516,incongruent,correct,Intro Cogn. Neuro-Psychology,52,p,circle,2350,square,circle,left,6.06266666666667,48,main
7433,396,congruent,correct,Intro Cogn. Neuro-Psychology,52,q,circle,1979,square,square,left,6.06266666666667,49,main
7433,537,incongruent,correct,Intro Cogn. Neuro-Psychology,52,q,circle,2534,square,square,right,6.06266666666667,50,main
7433,445,incongruent,correct,Intro Cogn. Neuro-Psychology,52,q,circle,1695,square,square,right,6.06266666666667,51,main
7433,480,congruent,correct,Intro Cogn. Neuro-Psychology,52,p,circle,2103,square,circle,right,6.06266666666667,52,main
7433,599,incongruent,correct,Intro Cogn. Neuro-Psychology,52,q,circle,1506,square,square,right,6.06266666666667,53,main
7433,473,incongruent,correct,Intro Cogn. Neuro-Psychology,52,p,circle,1513,square,circle,left,6.06266666666667,54,main
7433,450,incongruent,correct,Intro Cogn. Neuro-Psychology,52,p,circle,1690,square,circle,left,6.06266666666667,55,main
7433,461,incongruent,correct,Intro Cogn. Neuro-Psychology,52,q,circle,2250,square,square,right,6.06266666666667,56,main
7433,460,incongruent,correct,Intro Cogn. Neuro-Psychology,52,q,circle,1877,square,square,right,6.06266666666667,57,main
7433,433,incongruent,correct,Intro Cogn. Neuro-Psychology,52,q,circle,2101,square,square,right,6.06266666666667,58,main
7433,531,incongruent,correct,Intro Cogn. Neuro-Psychology,52,p,circle,2278,square,circle,left,6.06266666666667,59,main
7433,544,congruent,correct,Intro Cogn. Neuro-Psychology,52,q,circle,2215,square,square,left,6.06266666666667,60,main
7433,443,congruent,correct,Intro Cogn. Neuro-Psychology,52,p,circle,2659,square,circle,right,6.06266666666667,61,main
7433,455,incongruent,correct,Intro Cogn. Neuro-Psychology,52,q,circle,1363,square,square,right,6.06266666666667,62,main
7433,459,incongruent,correct,Intro Cogn. Neuro-Psychology,52,p,circle,2139,square,circle,left,6.06266666666667,63,main
7433,547,congruent,correct,Intro Cogn. Neuro-Psychology,52,p,circle,2317,square,circle,right,6.06266666666667,64,main
7433,409,congruent,correct,Intro Cogn. Neuro-Psychology,52,q,circle,2454,square,square,left,6.06266666666667,65,main
7433,421,incongruent,correct,Intro Cogn. Neuro-Psychology,52,q,circle,2049,square,square,right,6.06266666666667,66,main
7433,348,incongruent,incorrect,Intro Cogn. Neuro-Psychology,52,q,circle,1518,square,circle,left,6.06266666666667,67,main
7433,421,congruent,correct,Intro Cogn. Neuro-Psychology,52,q,circle,2547,square,square,left,6.06266666666667,68,main
7433,441,incongruent,correct,Intro Cogn. Neuro-Psychology,52,p,circle,1784,square,circle,left,6.06266666666667,69,main
7433,431,congruent,correct,Intro Cogn. Neuro-Psychology,52,q,circle,1870,square,square,left,6.06266666666667,70,main
7433,473,incongruent,correct,Intro Cogn. Neuro-Psychology,52,p,circle,1736,square,circle,left,6.06266666666667,71,main
7433,484,congruent,correct,Intro Cogn. Neuro-Psychology,52,p,circle,1972,square,circle,right,6.06266666666667,72,main
7433,535,incongruent,correct,Intro Cogn. Neuro-Psychology,52,q,circle,1734,square,square,right,6.06266666666667,73,main
7433,632,incongruent,correct,Intro Cogn. Neuro-Psychology,52,q,circle,2357,square,square,right,6.06266666666667,74,main
7433,465,incongruent,correct,Intro Cogn. Neuro-Psychology,52,q,circle,2540,square,square,right,6.06266666666667,75,main
7433,450,incongruent,correct,Intro Cogn. Neuro-Psychology,52,q,circle,2250,square,square,right,6.06266666666667,76,main
7433,463,congruent,correct,Intro Cogn. Neuro-Psychology,52,q,circle,2182,square,square,left,6.06266666666667,77,main
7433,532,incongruent,correct,Intro Cogn. Neuro-Psychology,52,q,circle,2250,square,square,right,6.06266666666667,78,main
7433,406,incongruent,correct,Intro Cogn. Neuro-Psychology,52,q,circle,1314,square,square,right,6.06266666666667,79,main
7433,618,incongruent,correct,Intro Cogn. Neuro-Psychology,52,p,circle,2670,square,circle,left,6.06266666666667,80,main
7433,516,congruent,correct,Intro Cogn. Neuro-Psychology,52,p,circle,1709,square,circle,right,6.06266666666667,81,main
7433,507,congruent,correct,Intro Cogn. Neuro-Psychology,52,p,circle,1504,square,circle,right,6.06266666666667,82,main
7433,372,incongruent,incorrect,Intro Cogn. Neuro-Psychology,52,q,circle,1964,square,circle,left,6.06266666666667,83,main
7433,505,incongruent,correct,Intro Cogn. Neuro-Psychology,52,q,circle,2359,square,square,right,6.06266666666667,84,main
7433,485,congruent,correct,Intro Cogn. Neuro-Psychology,52,p,circle,2033,square,circle,right,6.06266666666667,85,main
7433,450,congruent,correct,Intro Cogn. Neuro-Psychology,52,q,circle,2156,square,square,left,6.06266666666667,86,main
7433,411,congruent,correct,Intro Cogn. Neuro-Psychology,52,q,circle,1571,square,square,left,6.06266666666667,87,main
7433,509,congruent,correct,Intro Cogn. Neuro-Psychology,52,p,circle,1893,square,circle,right,6.06266666666667,88,main
7433,529,incongruent,correct,Intro Cogn. Neuro-Psychology,52,p,circle,2211,square,circle,left,6.06266666666667,89,main
7433,443,incongruent,correct,Intro Cogn. Neuro-Psychology,52,q,circle,1945,square,square,right,6.06266666666667,90,main
7433,393,incongruent,correct,Intro Cogn. Neuro-Psychology,52,p,circle,1888,square,circle,left,6.06266666666667,91,main
7433,502,congruent,correct,Intro Cogn. Neuro-Psychology,52,q,circle,2571,square,square,left,6.06266666666667,92,main
7433,491,congruent,correct,Intro Cogn. Neuro-Psychology,52,q,circle,1407,square,square,left,6.06266666666667,93,main
7433,350,congruent,correct,Intro Cogn. Neuro-Psychology,52,q,circle,2694,square,square,left,6.06266666666667,94,main
7433,381,incongruent,incorrect,Intro Cogn. Neuro-Psychology,52,q,circle,1463,square,circle,left,6.06266666666667,95,main
7433,452,incongruent,correct,Intro Cogn. Neuro-Psychology,52,q,circle,1237,square,square,right,6.06266666666667,96,main
7433,397,congruent,correct,Intro Cogn. Neuro-Psychology,52,p,circle,1931,square,circle,right,6.06266666666667,97,main
7433,485,incongruent,correct,Intro Cogn. Neuro-Psychology,52,q,circle,2580,square,square,right,6.06266666666667,98,main
7433,499,congruent,correct,Intro Cogn. Neuro-Psychology,52,q,circle,1806,square,square,left,6.06266666666667,99,main
7433,478,incongruent,correct,Intro Cogn. Neuro-Psychology,52,q,circle,2280,square,square,right,6.06266666666667,100,main
7434,1440,incongruent,correct,Intro Cogn. Neuro-Psychology,52,p,circle,2025,square,circle,left,8.82955,1,practice
7434,1042,incongruent,correct,Intro Cogn. Neuro-Psychology,52,q,circle,2547,square,square,right,8.82955,2,practice
7434,641,congruent,correct,Intro Cogn. Neuro-Psychology,52,q,circle,1917,square,square,left,8.82955,3,practice
7434,702,incongruent,correct,Intro Cogn. Neuro-Psychology,52,p,circle,1307,square,circle,left,8.82955,4,practice
7434,480,incongruent,correct,Intro Cogn. Neuro-Psychology,52,p,circle,2196,square,circle,left,8.82955,5,practice
7434,510,incongruent,correct,Intro Cogn. Neuro-Psychology,52,p,circle,2294,square,circle,left,8.82955,6,practice
7434,454,congruent,correct,Intro Cogn. Neuro-Psychology,52,p,circle,2359,square,circle,right,8.82955,7,practice
7434,552,incongruent,correct,Intro Cogn. Neuro-Psychology,52,q,circle,2113,square,square,right,8.82955,8,practice
7434,533,congruent,correct,Intro Cogn. Neuro-Psychology,52,p,circle,1893,square,circle,right,8.82955,9,practice
7434,637,incongruent,correct,Intro Cogn. Neuro-Psychology,52,p,circle,1204,square,circle,left,8.82955,10,practice
7434,554,incongruent,correct,Intro Cogn. Neuro-Psychology,52,p,circle,2624,square,circle,left,8.82955,11,practice
7434,499,congruent,correct,Intro Cogn. Neuro-Psychology,52,p,circle,1477,square,circle,right,8.82955,12,practice
7434,511,incongruent,correct,Intro Cogn. Neuro-Psychology,52,q,circle,2294,square,square,right,8.82955,13,practice
7434,504,incongruent,correct,Intro Cogn. Neuro-Psychology,52,p,circle,1509,square,circle,left,8.82955,14,practice
7434,433,incongruent,correct,Intro Cogn. Neuro-Psychology,52,p,circle,1271,square,circle,left,8.82955,15,practice
7434,498,incongruent,correct,Intro Cogn. Neuro-Psychology,52,p,circle,2395,square,circle,left,8.82955,16,practice
7434,449,incongruent,correct,Intro Cogn. Neuro-Psychology,52,p,circle,1340,square,circle,left,8.82955,17,practice
7434,547,incongruent,correct,Intro Cogn. Neuro-Psychology,52,q,circle,1983,square,square,right,8.82955,18,practice
7434,443,incongruent,correct,Intro Cogn. Neuro-Psychology,52,q,circle,2339,square,square,right,8.82955,19,practice
7434,457,incongruent,correct,Intro Cogn. Neuro-Psychology,52,q,circle,1439,square,square,right,8.82955,20,practice
7434,794,congruent,correct,Intro Cogn. Neuro-Psychology,52,p,circle,2470,square,circle,right,8.82955,1,main
7434,431,congruent,correct,Intro Cogn. Neuro-Psychology,52,p,circle,1744,square,circle,right,8.82955,2,main
7434,505,incongruent,correct,Intro Cogn. Neuro-Psychology,52,q,circle,1819,square,square,right,8.82955,3,main
7434,708,congruent,correct,Intro Cogn. Neuro-Psychology,52,q,circle,2147,square,square,left,8.82955,4,main
7434,446,congruent,correct,Intro Cogn. Neuro-Psychology,52,p,circle,2488,square,circle,right,8.82955,5,main
7434,391,congruent,correct,Intro Cogn. Neuro-Psychology,52,p,circle,1771,square,circle,right,8.82955,6,main
7434,591,congruent,correct,Intro Cogn. Neuro-Psychology,52,q,circle,2684,square,square,left,8.82955,7,main
7434,418,congruent,correct,Intro Cogn. Neuro-Psychology,52,q,circle,2353,square,square,left,8.82955,8,main
7434,564,incongruent,correct,Intro Cogn. Neuro-Psychology,52,q,circle,2247,square,square,right,8.82955,9,main
7434,487,incongruent,correct,Intro Cogn. Neuro-Psychology,52,p,circle,2438,square,circle,left,8.82955,10,main
7434,533,congruent,correct,Intro Cogn. Neuro-Psychology,52,p,circle,2356,square,circle,right,8.82955,11,main
7434,470,congruent,correct,Intro Cogn. Neuro-Psychology,52,q,circle,2365,square,square,left,8.82955,12,main
7434,475,incongruent,correct,Intro Cogn. Neuro-Psychology,52,q,circle,1778,square,square,right,8.82955,13,main
7434,468,incongruent,correct,Intro Cogn. Neuro-Psychology,52,q,circle,2261,square,square,right,8.82955,14,main
7434,497,congruent,correct,Intro Cogn. Neuro-Psychology,52,q,circle,2395,square,square,left,8.82955,15,main
7434,379,congruent,correct,Intro Cogn. Neuro-Psychology,52,q,circle,1539,square,square,left,8.82955,16,main
7434,441,congruent,correct,Intro Cogn. Neuro-Psychology,52,p,circle,1429,square,circle,right,8.82955,17,main
7434,424,congruent,correct,Intro Cogn. Neuro-Psychology,52,p,circle,1499,square,circle,right,8.82955,18,main
7434,333,incongruent,incorrect,Intro Cogn. Neuro-Psychology,52,q,circle,1724,square,circle,left,8.82955,19,main
7434,550,congruent,correct,Intro Cogn. Neuro-Psychology,52,p,circle,1518,square,circle,right,8.82955,20,main
7434,493,congruent,correct,Intro Cogn. Neuro-Psychology,52,q,circle,1868,square,square,left,8.82955,21,main
7434,527,incongruent,correct,Intro Cogn. Neuro-Psychology,52,q,circle,2043,square,square,right,8.82955,22,main
7434,555,congruent,correct,Intro Cogn. Neuro-Psychology,52,q,circle,2186,square,square,left,8.82955,23,main
7434,506,incongruent,correct,Intro Cogn. Neuro-Psychology,52,q,circle,2222,square,square,right,8.82955,24,main
7434,573,incongruent,correct,Intro Cogn. Neuro-Psychology,52,p,circle,1200,square,circle,left,8.82955,25,main
7434,594,congruent,incorrect,Intro Cogn. Neuro-Psychology,52,q,circle,2498,square,circle,right,8.82955,26,main
7434,554,incongruent,correct,Intro Cogn. Neuro-Psychology,52,q,circle,1697,square,square,right,8.82955,27,main
7434,608,congruent,correct,Intro Cogn. Neuro-Psychology,52,p,circle,2334,square,circle,right,8.82955,28,main
7434,830,congruent,correct,Intro Cogn. Neuro-Psychology,52,q,circle,1843,square,square,left,8.82955,29,main
7434,538,incongruent,correct,Intro Cogn. Neuro-Psychology,52,q,circle,2136,square,square,right,8.82955,30,main
7434,500,incongruent,correct,Intro Cogn. Neuro-Psychology,52,p,circle,1400,square,circle,left,8.82955,31,main
7434,504,incongruent,correct,Intro Cogn. Neuro-Psychology,52,q,circle,1773,square,square,right,8.82955,32,main
7434,475,incongruent,correct,Intro Cogn. Neuro-Psychology,52,q,circle,1295,square,square,right,8.82955,33,main
7434,438,incongruent,correct,Intro Cogn. Neuro-Psychology,52,q,circle,1840,square,square,right,8.82955,34,main
7434,443,incongruent,correct,Intro Cogn. Neuro-Psychology,52,q,circle,1256,square,square,right,8.82955,35,main
7434,490,incongruent,correct,Intro Cogn. Neuro-Psychology,52,p,circle,1424,square,circle,left,8.82955,36,main
7434,561,congruent,correct,Intro Cogn. Neuro-Psychology,52,q,circle,1253,square,square,left,8.82955,37,main
7434,488,incongruent,correct,Intro Cogn. Neuro-Psychology,52,q,circle,2531,square,square,right,8.82955,38,main
7434,514,incongruent,correct,Intro Cogn. Neuro-Psychology,52,p,circle,1302,square,circle,left,8.82955,39,main
7434,642,congruent,correct,Intro Cogn. Neuro-Psychology,52,p,circle,2370,square,circle,right,8.82955,40,main
7434,555,congruent,correct,Intro Cogn. Neuro-Psychology,52,q,circle,1621,square,square,left,8.82955,41,main
7434,542,incongruent,correct,Intro Cogn. Neuro-Psychology,52,q,circle,1311,square,square,right,8.82955,42,main
7434,465,incongruent,correct,Intro Cogn. Neuro-Psychology,52,p,circle,2600,square,circle,left,8.82955,43,main
7434,435,congruent,incorrect,Intro Cogn. Neuro-Psychology,52,p,circle,1936,square,square,left,8.82955,44,main
7434,604,incongruent,correct,Intro Cogn. Neuro-Psychology,52,p,circle,1235,square,circle,left,8.82955,45,main
7434,470,incongruent,correct,Intro Cogn. Neuro-Psychology,52,p,circle,2203,square,circle,left,8.82955,46,main
7434,531,incongruent,correct,Intro Cogn. Neuro-Psychology,52,q,circle,1720,square,square,right,8.82955,47,main
7434,508,incongruent,correct,Intro Cogn. Neuro-Psychology,52,p,circle,2326,square,circle,left,8.82955,48,main
7434,614,congruent,correct,Intro Cogn. Neuro-Psychology,52,q,circle,1257,square,square,left,8.82955,49,main
7434,561,congruent,correct,Intro Cogn. Neuro-Psychology,52,p,circle,2471,square,circle,right,8.82955,50,main
7434,543,incongruent,correct,Intro Cogn. Neuro-Psychology,52,p,circle,1619,square,circle,left,8.82955,51,main
7434,534,incongruent,correct,Intro Cogn. Neuro-Psychology,52,q,circle,2473,square,square,right,8.82955,52,main
7434,652,incongruent,correct,Intro Cogn. Neuro-Psychology,52,p,circle,1530,square,circle,left,8.82955,53,main
7434,522,incongruent,correct,Intro Cogn. Neuro-Psychology,52,p,circle,2515,square,circle,left,8.82955,54,main
7434,451,incongruent,correct,Intro Cogn. Neuro-Psychology,52,q,circle,2664,square,square,right,8.82955,55,main
7434,498,congruent,correct,Intro Cogn. Neuro-Psychology,52,p,circle,2570,square,circle,right,8.82955,56,main
7434,523,congruent,correct,Intro Cogn. Neuro-Psychology,52,p,circle,1439,square,circle,right,8.82955,57,main
7434,509,incongruent,correct,Intro Cogn. Neuro-Psychology,52,p,circle,2122,square,circle,left,8.82955,58,main
7434,496,incongruent,correct,Intro Cogn. Neuro-Psychology,52,q,circle,2151,square,square,right,8.82955,59,main
7434,621,congruent,correct,Intro Cogn. Neuro-Psychology,52,p,circle,1243,square,circle,right,8.82955,60,main
7434,721,incongruent,correct,Intro Cogn. Neuro-Psychology,52,p,circle,2433,square,circle,left,8.82955,61,main
7434,471,incongruent,correct,Intro Cogn. Neuro-Psychology,52,p,circle,2317,square,circle,left,8.82955,62,main
7434,465,incongruent,correct,Intro Cogn. Neuro-Psychology,52,q,circle,1786,square,square,right,8.82955,63,main
7434,470,incongruent,correct,Intro Cogn. Neuro-Psychology,52,q,circle,2335,square,square,right,8.82955,64,main
7434,454,incongruent,correct,Intro Cogn. Neuro-Psychology,52,p,circle,2122,square,circle,left,8.82955,65,main
7434,689,congruent,correct,Intro Cogn. Neuro-Psychology,52,p,circle,1554,square,circle,right,8.82955,66,main
7434,528,congruent,correct,Intro Cogn. Neuro-Psychology,52,p,circle,2331,square,circle,right,8.82955,67,main
7434,500,congruent,correct,Intro Cogn. Neuro-Psychology,52,p,circle,2254,square,circle,right,8.82955,68,main
7434,568,incongruent,correct,Intro Cogn. Neuro-Psychology,52,p,circle,2253,square,circle,left,8.82955,69,main
7434,520,congruent,correct,Intro Cogn. Neuro-Psychology,52,q,circle,2665,square,square,left,8.82955,70,main
7434,512,congruent,correct,Intro Cogn. Neuro-Psychology,52,p,circle,2106,square,circle,right,8.82955,71,main
7434,664,congruent,incorrect,Intro Cogn. Neuro-Psychology,52,p,circle,2209,square,square,left,8.82955,72,main
7434,720,congruent,correct,Intro Cogn. Neuro-Psychology,52,p,circle,2546,square,circle,right,8.82955,73,main
7434,537,incongruent,correct,Intro Cogn. Neuro-Psychology,52,q,circle,2415,square,square,right,8.82955,74,main
7434,1110,congruent,correct,Intro Cogn. Neuro-Psychology,52,q,circle,1916,square,square,left,8.82955,75,main
7434,553,incongruent,correct,Intro Cogn. Neuro-Psychology,52,p,circle,2365,square,circle,left,8.82955,76,main
7434,675,congruent,correct,Intro Cogn. Neuro-Psychology,52,p,circle,2348,square,circle,right,8.82955,77,main
7434,531,congruent,correct,Intro Cogn. Neuro-Psychology,52,q,circle,1420,square,square,left,8.82955,78,main
7434,504,congruent,correct,Intro Cogn. Neuro-Psychology,52,q,circle,2639,square,square,left,8.82955,79,main
7434,599,incongruent,correct,Intro Cogn. Neuro-Psychology,52,q,circle,1588,square,square,right,8.82955,80,main
7434,557,incongruent,correct,Intro Cogn. Neuro-Psychology,52,p,circle,1722,square,circle,left,8.82955,81,main
7434,554,congruent,correct,Intro Cogn. Neuro-Psychology,52,p,circle,2390,square,circle,right,8.82955,82,main
7434,588,incongruent,correct,Intro Cogn. Neuro-Psychology,52,p,circle,1482,square,circle,left,8.82955,83,main
7434,536,congruent,correct,Intro Cogn. Neuro-Psychology,52,q,circle,2130,square,square,left,8.82955,84,main
7434,488,incongruent,correct,Intro Cogn. Neuro-Psychology,52,q,circle,1673,square,square,right,8.82955,85,main
7434,508,congruent,correct,Intro Cogn. Neuro-Psychology,52,p,circle,2056,square,circle,right,8.82955,86,main
7434,431,congruent,correct,Intro Cogn. Neuro-Psychology,52,p,circle,2008,square,circle,right,8.82955,87,main
7434,502,incongruent,correct,Intro Cogn. Neuro-Psychology,52,p,circle,2154,square,circle,left,8.82955,88,main
7434,559,incongruent,correct,Intro Cogn. Neuro-Psychology,52,p,circle,1482,square,circle,left,8.82955,89,main
7434,428,incongruent,correct,Intro Cogn. Neuro-Psychology,52,p,circle,2306,square,circle,left,8.82955,90,main
7434,484,incongruent,correct,Intro Cogn. Neuro-Psychology,52,p,circle,1969,square,circle,left,8.82955,91,main
7434,427,congruent,correct,Intro Cogn. Neuro-Psychology,52,q,circle,2205,square,square,left,8.82955,92,main
7434,406,congruent,correct,Intro Cogn. Neuro-Psychology,52,q,circle,1286,square,square,left,8.82955,93,main
7434,470,congruent,correct,Intro Cogn. Neuro-Psychology,52,p,circle,1842,square,circle,right,8.82955,94,main
7434,496,incongruent,correct,Intro Cogn. Neuro-Psychology,52,p,circle,1460,square,circle,left,8.82955,95,main
7434,477,congruent,correct,Intro Cogn. Neuro-Psychology,52,p,circle,2418,square,circle,right,8.82955,96,main
7434,476,incongruent,correct,Intro Cogn. Neuro-Psychology,52,p,circle,1470,square,circle,left,8.82955,97,main
7434,456,incongruent,correct,Intro Cogn. Neuro-Psychology,52,q,circle,1419,square,square,right,8.82955,98,main
7434,478,incongruent,correct,Intro Cogn. Neuro-Psychology,52,p,circle,2690,square,circle,left,8.82955,99,main
7434,598,congruent,correct,Intro Cogn. Neuro-Psychology,52,q,circle,2446,square,square,left,8.82955,100,main
7435,1050,congruent,incorrect,Intro Cogn. Neuro-Psychology,52,p,circle,1218,square,square,left,7.86385,1,practice
7435,232,congruent,correct,Intro Cogn. Neuro-Psychology,52,p,circle,1659,square,circle,right,7.86385,2,practice
7435,91,incongruent,correct,Intro Cogn. Neuro-Psychology,52,q,circle,2278,square,square,right,7.86385,3,practice
7435,13,incongruent,incorrect,Intro Cogn. Neuro-Psychology,52,p,circle,2227,square,square,right,7.86385,4,practice
7435,110,congruent,correct,Intro Cogn. Neuro-Psychology,52,p,circle,2661,square,circle,right,7.86385,5,practice
7435,32,congruent,incorrect,Intro Cogn. Neuro-Psychology,52,p,circle,2109,square,square,left,7.86385,6,practice
7435,267,incongruent,correct,Intro Cogn. Neuro-Psychology,52,q,circle,1384,square,square,right,7.86385,7,practice
7435,39,incongruent,incorrect,Intro Cogn. Neuro-Psychology,52,q,circle,2685,square,circle,left,7.86385,8,practice
7435,231,congruent,incorrect,Intro Cogn. Neuro-Psychology,52,p,circle,1932,square,square,left,7.86385,9,practice
7435,258,congruent,incorrect,Intro Cogn. Neuro-Psychology,52,p,circle,1346,square,square,left,7.86385,10,practice
7435,554,congruent,incorrect,Intro Cogn. Neuro-Psychology,52,p,circle,2252,square,square,left,7.86385,11,practice
7435,296,congruent,incorrect,Intro Cogn. Neuro-Psychology,52,q,circle,2055,square,circle,right,7.86385,12,practice
7435,0,congruent,correct,Intro Cogn. Neuro-Psychology,52,p,circle,2388,square,circle,right,7.86385,13,practice
7435,19,congruent,correct,Intro Cogn. Neuro-Psychology,52,p,circle,2315,square,circle,right,7.86385,14,practice
7435,13,congruent,incorrect,Intro Cogn. Neuro-Psychology,52,p,circle,1486,square,square,left,7.86385,15,practice
7435,231,incongruent,incorrect,Intro Cogn. Neuro-Psychology,52,q,circle,1874,square,circle,left,7.86385,16,practice
7435,492,incongruent,incorrect,Intro Cogn. Neuro-Psychology,52,q,circle,1303,square,circle,left,7.86385,17,practice
7435,2,congruent,incorrect,Intro Cogn. Neuro-Psychology,52,q,circle,2624,square,circle,right,7.86385,18,practice
7435,1,congruent,incorrect,Intro Cogn. Neuro-Psychology,52,q,circle,2136,square,circle,right,7.86385,19,practice
7435,20,incongruent,incorrect,Intro Cogn. Neuro-Psychology,52,q,circle,2213,square,circle,left,7.86385,20,practice
7435,132,congruent,correct,Intro Cogn. Neuro-Psychology,52,p,circle,1949,square,circle,right,7.86385,1,main
7435,209,incongruent,incorrect,Intro Cogn. Neuro-Psychology,52,p,circle,2236,square,square,right,7.86385,2,main
7435,445,congruent,correct,Intro Cogn. Neuro-Psychology,52,q,circle,2382,square,square,left,7.86385,3,main
7435,537,congruent,correct,Intro Cogn. Neuro-Psychology,52,p,circle,1754,square,circle,right,7.86385,4,main
7435,434,congruent,correct,Intro Cogn. Neuro-Psychology,52,p,circle,1841,square,circle,right,7.86385,5,main
7435,356,congruent,correct,Intro Cogn. Neuro-Psychology,52,p,circle,1943,square,circle,right,7.86385,6,main
7435,284,congruent,correct,Intro Cogn. Neuro-Psychology,52,q,circle,2382,square,square,left,7.86385,7,main
7435,417,incongruent,correct,Intro Cogn. Neuro-Psychology,52,q,circle,2063,square,square,right,7.86385,8,main
7435,387,incongruent,correct,Intro Cogn. Neuro-Psychology,52,p,circle,1468,square,circle,left,7.86385,9,main
7435,480,incongruent,correct,Intro Cogn. Neuro-Psychology,52,p,circle,1765,square,circle,left,7.86385,10,main
7435,401,incongruent,correct,Intro Cogn. Neuro-Psychology,52,q,circle,2622,square,square,right,7.86385,11,main
7435,573,incongruent,correct,Intro Cogn. Neuro-Psychology,52,p,circle,2108,square,circle,left,7.86385,12,main
7435,480,incongruent,correct,Intro Cogn. Neuro-Psychology,52,p,circle,1242,square,circle,left,7.86385,13,main
7435,412,congruent,correct,Intro Cogn. Neuro-Psychology,52,p,circle,1410,square,circle,right,7.86385,14,main
7435,289,incongruent,incorrect,Intro Cogn. Neuro-Psychology,52,p,circle,1558,square,square,right,7.86385,15,main
7435,465,congruent,incorrect,Intro Cogn. Neuro-Psychology,52,q,circle,1684,square,circle,right,7.86385,16,main
7435,492,incongruent,correct,Intro Cogn. Neuro-Psychology,52,p,circle,1466,square,circle,left,7.86385,17,main
7435,370,incongruent,correct,Intro Cogn. Neuro-Psychology,52,p,circle,2583,square,circle,left,7.86385,18,main
7435,675,congruent,correct,Intro Cogn. Neuro-Psychology,52,p,circle,1230,square,circle,right,7.86385,19,main
7435,370,incongruent,correct,Intro Cogn. Neuro-Psychology,52,p,circle,1242,square,circle,left,7.86385,20,main
7435,459,congruent,correct,Intro Cogn. Neuro-Psychology,52,q,circle,2200,square,square,left,7.86385,21,main
7435,326,incongruent,correct,Intro Cogn. Neuro-Psychology,52,q,circle,1785,square,square,right,7.86385,22,main
7435,495,congruent,correct,Intro Cogn. Neuro-Psychology,52,p,circle,2123,square,circle,right,7.86385,23,main
7435,383,congruent,correct,Intro Cogn. Neuro-Psychology,52,q,circle,2516,square,square,left,7.86385,24,main
7435,353,congruent,correct,Intro Cogn. Neuro-Psychology,52,q,circle,1607,square,square,left,7.86385,25,main
7435,446,incongruent,correct,Intro Cogn. Neuro-Psychology,52,p,circle,1792,square,circle,left,7.86385,26,main
7435,401,congruent,correct,Intro Cogn. Neuro-Psychology,52,p,circle,2491,square,circle,right,7.86385,27,main
7435,617,incongruent,correct,Intro Cogn. Neuro-Psychology,52,p,circle,2561,square,circle,left,7.86385,28,main
7435,481,incongruent,correct,Intro Cogn. Neuro-Psychology,52,p,circle,1717,square,circle,left,7.86385,29,main
7435,508,congruent,correct,Intro Cogn. Neuro-Psychology,52,q,circle,1937,square,square,left,7.86385,30,main
7435,732,congruent,correct,Intro Cogn. Neuro-Psychology,52,p,circle,1357,square,circle,right,7.86385,31,main
7435,454,incongruent,correct,Intro Cogn. Neuro-Psychology,52,p,circle,2377,square,circle,left,7.86385,32,main
7435,362,congruent,incorrect,Intro Cogn. Neuro-Psychology,52,p,circle,2206,square,square,left,7.86385,33,main
7435,499,congruent,correct,Intro Cogn. Neuro-Psychology,52,q,circle,1387,square,square,left,7.86385,34,main
7435,427,incongruent,correct,Intro Cogn. Neuro-Psychology,52,p,circle,2378,square,circle,left,7.86385,35,main
7435,402,congruent,incorrect,Intro Cogn. Neuro-Psychology,52,q,circle,2427,square,circle,right,7.86385,36,main
7435,597,congruent,correct,Intro Cogn. Neuro-Psychology,52,q,circle,1343,square,square,left,7.86385,37,main
7435,435,incongruent,correct,Intro Cogn. Neuro-Psychology,52,q,circle,2242,square,square,right,7.86385,38,main
7435,418,congruent,correct,Intro Cogn. Neuro-Psychology,52,p,circle,1235,square,circle,right,7.86385,39,main
7435,610,incongruent,correct,Intro Cogn. Neuro-Psychology,52,q,circle,2632,square,square,right,7.86385,40,main
7435,368,congruent,incorrect,Intro Cogn. Neuro-Psychology,52,p,circle,2288,square,square,left,7.86385,41,main
7435,467,incongruent,correct,Intro Cogn. Neuro-Psychology,52,q,circle,1998,square,square,right,7.86385,42,main
7435,347,incongruent,correct,Intro Cogn. Neuro-Psychology,52,q,circle,1899,square,square,right,7.86385,43,main
7435,376,incongruent,correct,Intro Cogn. Neuro-Psychology,52,p,circle,1686,square,circle,left,7.86385,44,main
7435,368,incongruent,correct,Intro Cogn. Neuro-Psychology,52,q,circle,2128,square,square,right,7.86385,45,main
7435,451,congruent,correct,Intro Cogn. Neuro-Psychology,52,q,circle,1861,square,square,left,7.86385,46,main
7435,360,incongruent,incorrect,Intro Cogn. Neuro-Psychology,52,q,circle,1507,square,circle,left,7.86385,47,main
7435,416,incongruent,correct,Intro Cogn. Neuro-Psychology,52,p,circle,2056,square,circle,left,7.86385,48,main
7435,346,incongruent,correct,Intro Cogn. Neuro-Psychology,52,p,circle,1562,square,circle,left,7.86385,49,main
7435,434,congruent,correct,Intro Cogn. Neuro-Psychology,52,q,circle,1783,square,square,left,7.86385,50,main
7435,376,congruent,correct,Intro Cogn. Neuro-Psychology,52,q,circle,1782,square,square,left,7.86385,51,main
7435,433,incongruent,correct,Intro Cogn. Neuro-Psychology,52,p,circle,2139,square,circle,left,7.86385,52,main
7435,376,congruent,correct,Intro Cogn. Neuro-Psychology,52,p,circle,1782,square,circle,right,7.86385,53,main
7435,342,congruent,correct,Intro Cogn. Neuro-Psychology,52,q,circle,1493,square,square,left,7.86385,54,main
7435,478,incongruent,correct,Intro Cogn. Neuro-Psychology,52,p,circle,2020,square,circle,left,7.86385,55,main
7435,404,congruent,correct,Intro Cogn. Neuro-Psychology,52,q,circle,2682,square,square,left,7.86385,56,main
7435,343,incongruent,incorrect,Intro Cogn. Neuro-Psychology,52,p,circle,2034,square,square,right,7.86385,57,main
7435,371,incongruent,correct,Intro Cogn. Neuro-Psychology,52,q,circle,1473,square,square,right,7.86385,58,main
7435,398,congruent,incorrect,Intro Cogn. Neuro-Psychology,52,p,circle,2164,square,square,left,7.86385,59,main
7435,538,congruent,correct,Intro Cogn. Neuro-Psychology,52,p,circle,2369,square,circle,right,7.86385,60,main
7435,389,incongruent,correct,Intro Cogn. Neuro-Psychology,52,p,circle,2508,square,circle,left,7.86385,61,main
7435,379,incongruent,correct,Intro Cogn. Neuro-Psychology,52,q,circle,1691,square,square,right,7.86385,62,main
7435,443,congruent,correct,Intro Cogn. Neuro-Psychology,52,p,circle,2595,square,circle,right,7.86385,63,main
7435,675,incongruent,correct,Intro Cogn. Neuro-Psychology,52,q,circle,2405,square,square,right,7.86385,64,main
7435,545,congruent,correct,Intro Cogn. Neuro-Psychology,52,q,circle,1902,square,square,left,7.86385,65,main
7435,412,incongruent,correct,Intro Cogn. Neuro-Psychology,52,q,circle,2046,square,square,right,7.86385,66,main
7435,451,incongruent,correct,Intro Cogn. Neuro-Psychology,52,p,circle,1702,square,circle,left,7.86385,67,main
7435,475,incongruent,correct,Intro Cogn. Neuro-Psychology,52,p,circle,2318,square,circle,left,7.86385,68,main
7435,414,congruent,incorrect,Intro Cogn. Neuro-Psychology,52,p,circle,1475,square,square,left,7.86385,69,main
7435,413,incongruent,correct,Intro Cogn. Neuro-Psychology,52,p,circle,2275,square,circle,left,7.86385,70,main
7435,413,congruent,correct,Intro Cogn. Neuro-Psychology,52,q,circle,1273,square,square,left,7.86385,71,main
7435,457,incongruent,incorrect,Intro Cogn. Neuro-Psychology,52,p,circle,2317,square,square,right,7.86385,72,main
7435,456,congruent,correct,Intro Cogn. Neuro-Psychology,52,p,circle,1991,square,circle,right,7.86385,73,main
7435,402,congruent,correct,Intro Cogn. Neuro-Psychology,52,p,circle,2412,square,circle,right,7.86385,74,main
7435,538,incongruent,correct,Intro Cogn. Neuro-Psychology,52,p,circle,1634,square,circle,left,7.86385,75,main
7435,414,incongruent,correct,Intro Cogn. Neuro-Psychology,52,q,circle,2031,square,square,right,7.86385,76,main
7435,472,incongruent,correct,Intro Cogn. Neuro-Psychology,52,p,circle,2691,square,circle,left,7.86385,77,main
7435,432,incongruent,correct,Intro Cogn. Neuro-Psychology,52,q,circle,2478,square,square,right,7.86385,78,main
7435,475,congruent,correct,Intro Cogn. Neuro-Psychology,52,p,circle,2265,square,circle,right,7.86385,79,main
7435,482,incongruent,correct,Intro Cogn. Neuro-Psychology,52,p,circle,2432,square,circle,left,7.86385,80,main
7435,372,congruent,correct,Intro Cogn. Neuro-Psychology,52,p,circle,2282,square,circle,right,7.86385,81,main
7435,389,congruent,correct,Intro Cogn. Neuro-Psychology,52,p,circle,1840,square,circle,right,7.86385,82,main
7435,359,congruent,correct,Intro Cogn. Neuro-Psychology,52,p,circle,1520,square,circle,right,7.86385,83,main
7435,303,congruent,correct,Intro Cogn. Neuro-Psychology,52,p,circle,2662,square,circle,right,7.86385,84,main
7435,350,congruent,correct,Intro Cogn. Neuro-Psychology,52,p,circle,2636,square,circle,right,7.86385,85,main
7435,379,incongruent,incorrect,Intro Cogn. Neuro-Psychology,52,q,circle,2678,square,circle,left,7.86385,86,main
7435,554,incongruent,correct,Intro Cogn. Neuro-Psychology,52,p,circle,1599,square,circle,left,7.86385,87,main
7435,586,congruent,correct,Intro Cogn. Neuro-Psychology,52,q,circle,1882,square,square,left,7.86385,88,main
7435,415,congruent,correct,Intro Cogn. Neuro-Psychology,52,p,circle,1809,square,circle,right,7.86385,89,main
7435,541,incongruent,correct,Intro Cogn. Neuro-Psychology,52,p,circle,1520,square,circle,left,7.86385,90,main
7435,436,incongruent,correct,Intro Cogn. Neuro-Psychology,52,q,circle,1788,square,square,right,7.86385,91,main
7435,443,incongruent,correct,Intro Cogn. Neuro-Psychology,52,p,circle,1872,square,circle,left,7.86385,92,main
7435,489,incongruent,correct,Intro Cogn. Neuro-Psychology,52,q,circle,1613,square,square,right,7.86385,93,main
7435,383,incongruent,correct,Intro Cogn. Neuro-Psychology,52,q,circle,2033,square,square,right,7.86385,94,main
7435,413,congruent,correct,Intro Cogn. Neuro-Psychology,52,q,circle,1464,square,square,left,7.86385,95,main
7435,377,congruent,correct,Intro Cogn. Neuro-Psychology,52,p,circle,2157,square,circle,right,7.86385,96,main
7435,433,incongruent,correct,Intro Cogn. Neuro-Psychology,52,q,circle,1324,square,square,right,7.86385,97,main
7435,541,congruent,correct,Intro Cogn. Neuro-Psychology,52,q,circle,2387,square,square,left,7.86385,98,main
7435,320,congruent,correct,Intro Cogn. Neuro-Psychology,52,q,circle,2250,square,square,left,7.86385,99,main
7435,458,congruent,correct,Intro Cogn. Neuro-Psychology,52,p,circle,2677,square,circle,right,7.86385,100,main
7436,848,congruent,correct,Intro Cogn. Neuro-Psychology,52,q,circle,1722,square,square,left,11.1814666666667,1,practice
7436,753,incongruent,incorrect,Intro Cogn. Neuro-Psychology,52,p,circle,2151,square,square,right,11.1814666666667,2,practice
7436,806,incongruent,correct,Intro Cogn. Neuro-Psychology,52,p,circle,1676,square,circle,left,11.1814666666667,3,practice
7436,651,congruent,correct,Intro Cogn. Neuro-Psychology,52,q,circle,1243,square,square,left,11.1814666666667,4,practice
7436,772,incongruent,correct,Intro Cogn. Neuro-Psychology,52,q,circle,2225,square,square,right,11.1814666666667,5,practice
7436,606,congruent,correct,Intro Cogn. Neuro-Psychology,52,q,circle,2477,square,square,left,11.1814666666667,6,practice
7436,425,congruent,correct,Intro Cogn. Neuro-Psychology,52,q,circle,1665,square,square,left,11.1814666666667,7,practice
7436,461,incongruent,incorrect,Intro Cogn. Neuro-Psychology,52,q,circle,2169,square,circle,left,11.1814666666667,8,practice
7436,750,incongruent,correct,Intro Cogn. Neuro-Psychology,52,p,circle,1891,square,circle,left,11.1814666666667,9,practice
7436,641,congruent,correct,Intro Cogn. Neuro-Psychology,52,q,circle,1225,square,square,left,11.1814666666667,10,practice
7436,894,incongruent,correct,Intro Cogn. Neuro-Psychology,52,q,circle,2538,square,square,right,11.1814666666667,11,practice
7436,621,incongruent,correct,Intro Cogn. Neuro-Psychology,52,p,circle,1489,square,circle,left,11.1814666666667,12,practice
7436,627,incongruent,correct,Intro Cogn. Neuro-Psychology,52,q,circle,2088,square,square,right,11.1814666666667,13,practice
7436,618,congruent,correct,Intro Cogn. Neuro-Psychology,52,p,circle,2616,square,circle,right,11.1814666666667,14,practice
7436,638,incongruent,correct,Intro Cogn. Neuro-Psychology,52,p,circle,1249,square,circle,left,11.1814666666667,15,practice
7436,530,congruent,correct,Intro Cogn. Neuro-Psychology,52,p,circle,1492,square,circle,right,11.1814666666667,16,practice
7436,510,congruent,correct,Intro Cogn. Neuro-Psychology,52,p,circle,1796,square,circle,right,11.1814666666667,17,practice
7436,561,incongruent,correct,Intro Cogn. Neuro-Psychology,52,p,circle,2411,square,circle,left,11.1814666666667,18,practice
7436,693,congruent,correct,Intro Cogn. Neuro-Psychology,52,p,circle,2516,square,circle,right,11.1814666666667,19,practice
7436,663,incongruent,correct,Intro Cogn. Neuro-Psychology,52,p,circle,2417,square,circle,left,11.1814666666667,20,practice
7436,747,incongruent,correct,Intro Cogn. Neuro-Psychology,52,q,circle,1391,square,square,right,11.1814666666667,1,main
7436,600,incongruent,correct,Intro Cogn. Neuro-Psychology,52,q,circle,2245,square,square,right,11.1814666666667,2,main
7436,604,incongruent,correct,Intro Cogn. Neuro-Psychology,52,q,circle,2086,square,square,right,11.1814666666667,3,main
7436,504,congruent,incorrect,Intro Cogn. Neuro-Psychology,52,p,circle,2136,square,square,left,11.1814666666667,4,main
7436,628,incongruent,correct,Intro Cogn. Neuro-Psychology,52,p,circle,2640,square,circle,left,11.1814666666667,5,main
7436,542,incongruent,correct,Intro Cogn. Neuro-Psychology,52,q,circle,2356,square,square,right,11.1814666666667,6,main
7436,610,congruent,correct,Intro Cogn. Neuro-Psychology,52,p,circle,2095,square,circle,right,11.1814666666667,7,main
7436,785,congruent,correct,Intro Cogn. Neuro-Psychology,52,p,circle,1492,square,circle,right,11.1814666666667,8,main
7436,632,incongruent,correct,Intro Cogn. Neuro-Psychology,52,q,circle,2521,square,square,right,11.1814666666667,9,main
7436,714,incongruent,correct,Intro Cogn. Neuro-Psychology,52,q,circle,2009,square,square,right,11.1814666666667,10,main
7436,622,congruent,correct,Intro Cogn. Neuro-Psychology,52,q,circle,2637,square,square,left,11.1814666666667,11,main
7436,544,incongruent,correct,Intro Cogn. Neuro-Psychology,52,p,circle,2661,square,circle,left,11.1814666666667,12,main
7436,617,congruent,correct,Intro Cogn. Neuro-Psychology,52,q,circle,1833,square,square,left,11.1814666666667,13,main
7436,635,incongruent,correct,Intro Cogn. Neuro-Psychology,52,q,circle,2619,square,square,right,11.1814666666667,14,main
7436,543,congruent,correct,Intro Cogn. Neuro-Psychology,52,q,circle,1665,square,square,left,11.1814666666667,15,main
7436,556,incongruent,correct,Intro Cogn. Neuro-Psychology,52,p,circle,1277,square,circle,left,11.1814666666667,16,main
7436,479,incongruent,correct,Intro Cogn. Neuro-Psychology,52,p,circle,2313,square,circle,left,11.1814666666667,17,main
7436,814,congruent,correct,Intro Cogn. Neuro-Psychology,52,q,circle,2415,square,square,left,11.1814666666667,18,main
7436,568,incongruent,correct,Intro Cogn. Neuro-Psychology,52,p,circle,1279,square,circle,left,11.1814666666667,19,main
7436,493,incongruent,correct,Intro Cogn. Neuro-Psychology,52,p,circle,1445,square,circle,left,11.1814666666667,20,main
7436,1133,congruent,correct,Intro Cogn. Neuro-Psychology,52,p,circle,2285,square,circle,right,11.1814666666667,21,main
7436,599,incongruent,correct,Intro Cogn. Neuro-Psychology,52,q,circle,2187,square,square,right,11.1814666666667,22,main
7436,732,congruent,correct,Intro Cogn. Neuro-Psychology,52,p,circle,2407,square,circle,right,11.1814666666667,23,main
7436,546,congruent,correct,Intro Cogn. Neuro-Psychology,52,p,circle,2554,square,circle,right,11.1814666666667,24,main
7436,493,congruent,correct,Intro Cogn. Neuro-Psychology,52,p,circle,1310,square,circle,right,11.1814666666667,25,main
7436,412,congruent,correct,Intro Cogn. Neuro-Psychology,52,p,circle,2440,square,circle,right,11.1814666666667,26,main
7436,541,incongruent,correct,Intro Cogn. Neuro-Psychology,52,q,circle,1378,square,square,right,11.1814666666667,27,main
7436,787,congruent,correct,Intro Cogn. Neuro-Psychology,52,q,circle,1370,square,square,left,11.1814666666667,28,main
7436,516,congruent,correct,Intro Cogn. Neuro-Psychology,52,q,circle,2012,square,square,left,11.1814666666667,29,main
7436,529,congruent,correct,Intro Cogn. Neuro-Psychology,52,p,circle,1768,square,circle,right,11.1814666666667,30,main
7436,511,congruent,correct,Intro Cogn. Neuro-Psychology,52,q,circle,1535,square,square,left,11.1814666666667,31,main
7436,614,congruent,correct,Intro Cogn. Neuro-Psychology,52,p,circle,2284,square,circle,right,11.1814666666667,32,main
7436,532,congruent,correct,Intro Cogn. Neuro-Psychology,52,q,circle,2675,square,square,left,11.1814666666667,33,main
7436,602,congruent,correct,Intro Cogn. Neuro-Psychology,52,q,circle,1591,square,square,left,11.1814666666667,34,main
7436,381,congruent,correct,Intro Cogn. Neuro-Psychology,52,q,circle,2243,square,square,left,11.1814666666667,35,main
7436,440,congruent,correct,Intro Cogn. Neuro-Psychology,52,p,circle,2527,square,circle,right,11.1814666666667,36,main
7436,632,congruent,correct,Intro Cogn. Neuro-Psychology,52,p,circle,1444,square,circle,right,11.1814666666667,37,main
7436,441,congruent,correct,Intro Cogn. Neuro-Psychology,52,q,circle,1469,square,square,left,11.1814666666667,38,main
7436,577,congruent,correct,Intro Cogn. Neuro-Psychology,52,p,circle,1665,square,circle,right,11.1814666666667,39,main
7436,588,incongruent,correct,Intro Cogn. Neuro-Psychology,52,p,circle,2489,square,circle,left,11.1814666666667,40,main
7436,536,incongruent,correct,Intro Cogn. Neuro-Psychology,52,p,circle,2064,square,circle,left,11.1814666666667,41,main
7436,603,congruent,correct,Intro Cogn. Neuro-Psychology,52,p,circle,1869,square,circle,right,11.1814666666667,42,main
7436,480,incongruent,correct,Intro Cogn. Neuro-Psychology,52,p,circle,1800,square,circle,left,11.1814666666667,43,main
7436,486,congruent,correct,Intro Cogn. Neuro-Psychology,52,q,circle,1567,square,square,left,11.1814666666667,44,main
7436,545,incongruent,correct,Intro Cogn. Neuro-Psychology,52,p,circle,1419,square,circle,left,11.1814666666667,45,main
7436,442,congruent,incorrect,Intro Cogn. Neuro-Psychology,52,q,circle,1447,square,circle,right,11.1814666666667,46,main
7436,665,incongruent,correct,Intro Cogn. Neuro-Psychology,52,q,circle,2324,square,square,right,11.1814666666667,47,main
7436,602,congruent,correct,Intro Cogn. Neuro-Psychology,52,p,circle,1532,square,circle,right,11.1814666666667,48,main
7436,526,incongruent,correct,Intro Cogn. Neuro-Psychology,52,q,circle,1876,square,square,right,11.1814666666667,49,main
7436,491,incongruent,correct,Intro Cogn. Neuro-Psychology,52,p,circle,1983,square,circle,left,11.1814666666667,50,main
7436,561,congruent,correct,Intro Cogn. Neuro-Psychology,52,p,circle,1988,square,circle,right,11.1814666666667,51,main
7436,451,congruent,correct,Intro Cogn. Neuro-Psychology,52,p,circle,2450,square,circle,right,11.1814666666667,52,main
7436,523,incongruent,correct,Intro Cogn. Neuro-Psychology,52,q,circle,1330,square,square,right,11.1814666666667,53,main
7436,531,congruent,correct,Intro Cogn. Neuro-Psychology,52,p,circle,2587,square,circle,right,11.1814666666667,54,main
7436,612,congruent,correct,Intro Cogn. Neuro-Psychology,52,q,circle,2294,square,square,left,11.1814666666667,55,main
7436,513,congruent,correct,Intro Cogn. Neuro-Psychology,52,p,circle,1251,square,circle,right,11.1814666666667,56,main
7436,482,congruent,correct,Intro Cogn. Neuro-Psychology,52,p,circle,1580,square,circle,right,11.1814666666667,57,main
7436,463,congruent,correct,Intro Cogn. Neuro-Psychology,52,q,circle,1334,square,square,left,11.1814666666667,58,main
7436,625,incongruent,correct,Intro Cogn. Neuro-Psychology,52,q,circle,1835,square,square,right,11.1814666666667,59,main
7436,503,congruent,correct,Intro Cogn. Neuro-Psychology,52,p,circle,1220,square,circle,right,11.1814666666667,60,main
7436,516,incongruent,correct,Intro Cogn. Neuro-Psychology,52,q,circle,2387,square,square,right,11.1814666666667,61,main
7436,440,incongruent,correct,Intro Cogn. Neuro-Psychology,52,p,circle,1959,square,circle,left,11.1814666666667,62,main
7436,503,congruent,correct,Intro Cogn. Neuro-Psychology,52,p,circle,2215,square,circle,right,11.1814666666667,63,main
7436,567,incongruent,correct,Intro Cogn. Neuro-Psychology,52,p,circle,2116,square,circle,left,11.1814666666667,64,main
7436,609,incongruent,correct,Intro Cogn. Neuro-Psychology,52,q,circle,2521,square,square,right,11.1814666666667,65,main
7436,459,incongruent,correct,Intro Cogn. Neuro-Psychology,52,q,circle,1363,square,square,right,11.1814666666667,66,main
7436,488,incongruent,correct,Intro Cogn. Neuro-Psychology,52,p,circle,2186,square,circle,left,11.1814666666667,67,main
7436,542,congruent,incorrect,Intro Cogn. Neuro-Psychology,52,p,circle,2526,square,square,left,11.1814666666667,68,main
7436,20092,congruent,correct,Intro Cogn. Neuro-Psychology,52,q,circle,2486,square,square,left,11.1814666666667,69,main
7436,607,incongruent,correct,Intro Cogn. Neuro-Psychology,52,q,circle,2690,square,square,right,11.1814666666667,70,main
7436,456,incongruent,correct,Intro Cogn. Neuro-Psychology,52,p,circle,1341,square,circle,left,11.1814666666667,71,main
7436,579,congruent,correct,Intro Cogn. Neuro-Psychology,52,q,circle,2082,square,square,left,11.1814666666667,72,main
7436,459,incongruent,correct,Intro Cogn. Neuro-Psychology,52,q,circle,2668,square,square,right,11.1814666666667,73,main
7436,460,incongruent,correct,Intro Cogn. Neuro-Psychology,52,p,circle,1723,square,circle,left,11.1814666666667,74,main
7436,500,congruent,incorrect,Intro Cogn. Neuro-Psychology,52,q,circle,2203,square,circle,right,11.1814666666667,75,main
7436,546,incongruent,correct,Intro Cogn. Neuro-Psychology,52,p,circle,2003,square,circle,left,11.1814666666667,76,main
7436,518,incongruent,correct,Intro Cogn. Neuro-Psychology,52,p,circle,2456,square,circle,left,11.1814666666667,77,main
7436,515,congruent,correct,Intro Cogn. Neuro-Psychology,52,q,circle,2084,square,square,left,11.1814666666667,78,main
7436,688,incongruent,correct,Intro Cogn. Neuro-Psychology,52,q,circle,1563,square,square,right,11.1814666666667,79,main
7436,496,incongruent,correct,Intro Cogn. Neuro-Psychology,52,p,circle,2203,square,circle,left,11.1814666666667,80,main
7436,417,incongruent,correct,Intro Cogn. Neuro-Psychology,52,p,circle,1225,square,circle,left,11.1814666666667,81,main
7436,462,incongruent,correct,Intro Cogn. Neuro-Psychology,52,p,circle,2416,square,circle,left,11.1814666666667,82,main
7436,434,incongruent,correct,Intro Cogn. Neuro-Psychology,52,q,circle,1783,square,square,right,11.1814666666667,83,main
7436,615,congruent,correct,Intro Cogn. Neuro-Psychology,52,p,circle,2686,square,circle,right,11.1814666666667,84,main
7436,472,incongruent,correct,Intro Cogn. Neuro-Psychology,52,p,circle,2477,square,circle,left,11.1814666666667,85,main
7436,438,incongruent,correct,Intro Cogn. Neuro-Psychology,52,p,circle,2155,square,circle,left,11.1814666666667,86,main
7436,416,incongruent,correct,Intro Cogn. Neuro-Psychology,52,p,circle,2332,square,circle,left,11.1814666666667,87,main
7436,443,incongruent,correct,Intro Cogn. Neuro-Psychology,52,q,circle,1326,square,square,right,11.1814666666667,88,main
7436,478,congruent,incorrect,Intro Cogn. Neuro-Psychology,52,p,circle,1943,square,square,left,11.1814666666667,89,main
7436,431,incongruent,correct,Intro Cogn. Neuro-Psychology,52,p,circle,1859,square,circle,left,11.1814666666667,90,main
7436,603,congruent,correct,Intro Cogn. Neuro-Psychology,52,q,circle,2256,square,square,left,11.1814666666667,91,main
7436,594,incongruent,correct,Intro Cogn. Neuro-Psychology,52,q,circle,1795,square,square,right,11.1814666666667,92,main
7436,494,congruent,correct,Intro Cogn. Neuro-Psychology,52,p,circle,1412,square,circle,right,11.1814666666667,93,main
7436,629,incongruent,correct,Intro Cogn. Neuro-Psychology,52,q,circle,2020,square,square,right,11.1814666666667,94,main
7436,531,incongruent,correct,Intro Cogn. Neuro-Psychology,52,p,circle,2306,square,circle,left,11.1814666666667,95,main
7436,522,incongruent,correct,Intro Cogn. Neuro-Psychology,52,q,circle,1773,square,square,right,11.1814666666667,96,main
7436,454,congruent,incorrect,Intro Cogn. Neuro-Psychology,52,q,circle,1913,square,circle,right,11.1814666666667,97,main
7436,578,incongruent,correct,Intro Cogn. Neuro-Psychology,52,p,circle,1243,square,circle,left,11.1814666666667,98,main
7436,625,congruent,correct,Intro Cogn. Neuro-Psychology,52,q,circle,1808,square,square,left,11.1814666666667,99,main
7436,624,incongruent,correct,Intro Cogn. Neuro-Psychology,52,q,circle,1771,square,square,right,11.1814666666667,100,main
7437,446,congruent,correct,Intro Cogn. Neuro-Psychology,52,q,circle,1955,square,square,left,8.96256666666667,1,practice
7437,19363,congruent,correct,Intro Cogn. Neuro-Psychology,52,p,circle,2566,square,circle,right,8.96256666666667,2,practice
7437,455,incongruent,incorrect,Intro Cogn. Neuro-Psychology,52,p,circle,1553,square,square,right,8.96256666666667,3,practice
7437,416,incongruent,incorrect,Intro Cogn. Neuro-Psychology,52,p,circle,2201,square,square,right,8.96256666666667,4,practice
7437,477,incongruent,correct,Intro Cogn. Neuro-Psychology,52,q,circle,2129,square,square,right,8.96256666666667,5,practice
7437,483,congruent,correct,Intro Cogn. Neuro-Psychology,52,q,circle,1948,square,square,left,8.96256666666667,6,practice
7437,324,congruent,incorrect,Intro Cogn. Neuro-Psychology,52,q,circle,1505,square,circle,right,8.96256666666667,7,practice
7437,432,congruent,correct,Intro Cogn. Neuro-Psychology,52,p,circle,1449,square,circle,right,8.96256666666667,8,practice
7437,378,congruent,correct,Intro Cogn. Neuro-Psychology,52,p,circle,2452,square,circle,right,8.96256666666667,9,practice
7437,436,congruent,correct,Intro Cogn. Neuro-Psychology,52,q,circle,1590,square,square,left,8.96256666666667,10,practice
7437,487,incongruent,correct,Intro Cogn. Neuro-Psychology,52,q,circle,1691,square,square,right,8.96256666666667,11,practice
7437,434,incongruent,correct,Intro Cogn. Neuro-Psychology,52,q,circle,2254,square,square,right,8.96256666666667,12,practice
7437,408,incongruent,correct,Intro Cogn. Neuro-Psychology,52,q,circle,2008,square,square,right,8.96256666666667,13,practice
7437,530,congruent,correct,Intro Cogn. Neuro-Psychology,52,p,circle,1213,square,circle,right,8.96256666666667,14,practice
7437,498,congruent,correct,Intro Cogn. Neuro-Psychology,52,p,circle,2651,square,circle,right,8.96256666666667,15,practice
7437,425,congruent,correct,Intro Cogn. Neuro-Psychology,52,p,circle,2311,square,circle,right,8.96256666666667,16,practice
7437,342,incongruent,incorrect,Intro Cogn. Neuro-Psychology,52,q,circle,1673,square,circle,left,8.96256666666667,17,practice
7437,632,incongruent,correct,Intro Cogn. Neuro-Psychology,52,p,circle,2689,square,circle,left,8.96256666666667,18,practice
7437,460,incongruent,correct,Intro Cogn. Neuro-Psychology,52,p,circle,2433,square,circle,left,8.96256666666667,19,practice
7437,320,incongruent,correct,Intro Cogn. Neuro-Psychology,52,q,circle,2222,square,square,right,8.96256666666667,20,practice
7437,462,congruent,correct,Intro Cogn. Neuro-Psychology,52,p,circle,2219,square,circle,right,8.96256666666667,1,main
7437,471,incongruent,correct,Intro Cogn. Neuro-Psychology,52,q,circle,2634,square,square,right,8.96256666666667,2,main
7437,387,incongruent,correct,Intro Cogn. Neuro-Psychology,52,q,circle,2149,square,square,right,8.96256666666667,3,main
7437,367,incongruent,correct,Intro Cogn. Neuro-Psychology,52,p,circle,2564,square,circle,left,8.96256666666667,4,main
7437,533,congruent,correct,Intro Cogn. Neuro-Psychology,52,p,circle,1788,square,circle,right,8.96256666666667,5,main
7437,400,congruent,correct,Intro Cogn. Neuro-Psychology,52,p,circle,2105,square,circle,right,8.96256666666667,6,main
7437,276,incongruent,correct,Intro Cogn. Neuro-Psychology,52,q,circle,2185,square,square,right,8.96256666666667,7,main
7437,490,incongruent,correct,Intro Cogn. Neuro-Psychology,52,q,circle,2561,square,square,right,8.96256666666667,8,main
7437,428,congruent,incorrect,Intro Cogn. Neuro-Psychology,52,q,circle,2556,square,circle,right,8.96256666666667,9,main
7437,531,incongruent,incorrect,Intro Cogn. Neuro-Psychology,52,p,circle,1822,square,square,right,8.96256666666667,10,main
7437,552,congruent,incorrect,Intro Cogn. Neuro-Psychology,52,q,circle,1891,square,circle,right,8.96256666666667,11,main
7437,510,incongruent,correct,Intro Cogn. Neuro-Psychology,52,p,circle,1647,square,circle,left,8.96256666666667,12,main
7437,574,congruent,correct,Intro Cogn. Neuro-Psychology,52,q,circle,1299,square,square,left,8.96256666666667,13,main
7437,650,congruent,correct,Intro Cogn. Neuro-Psychology,52,p,circle,1629,square,circle,right,8.96256666666667,14,main
7437,530,congruent,correct,Intro Cogn. Neuro-Psychology,52,p,circle,1911,square,circle,right,8.96256666666667,15,main
7437,622,congruent,correct,Intro Cogn. Neuro-Psychology,52,q,circle,2699,square,square,left,8.96256666666667,16,main
7437,355,congruent,correct,Intro Cogn. Neuro-Psychology,52,p,circle,1846,square,circle,right,8.96256666666667,17,main
7437,534,congruent,correct,Intro Cogn. Neuro-Psychology,52,q,circle,2562,square,square,left,8.96256666666667,18,main
7437,471,incongruent,correct,Intro Cogn. Neuro-Psychology,52,q,circle,2541,square,square,right,8.96256666666667,19,main
7437,505,congruent,correct,Intro Cogn. Neuro-Psychology,52,q,circle,1623,square,square,left,8.96256666666667,20,main
7437,434,incongruent,correct,Intro Cogn. Neuro-Psychology,52,q,circle,2333,square,square,right,8.96256666666667,21,main
7437,480,incongruent,correct,Intro Cogn. Neuro-Psychology,52,p,circle,2544,square,circle,left,8.96256666666667,22,main
7437,475,incongruent,correct,Intro Cogn. Neuro-Psychology,52,p,circle,1337,square,circle,left,8.96256666666667,23,main
7437,506,incongruent,correct,Intro Cogn. Neuro-Psychology,52,q,circle,2349,square,square,right,8.96256666666667,24,main
7437,461,congruent,incorrect,Intro Cogn. Neuro-Psychology,52,q,circle,2122,square,circle,right,8.96256666666667,25,main
7437,497,incongruent,incorrect,Intro Cogn. Neuro-Psychology,52,p,circle,1557,square,square,right,8.96256666666667,26,main
7437,595,congruent,correct,Intro Cogn. Neuro-Psychology,52,q,circle,2571,square,square,left,8.96256666666667,27,main
7437,453,incongruent,correct,Intro Cogn. Neuro-Psychology,52,q,circle,1863,square,square,right,8.96256666666667,28,main
7437,431,incongruent,correct,Intro Cogn. Neuro-Psychology,52,q,circle,1655,square,square,right,8.96256666666667,29,main
7437,395,incongruent,correct,Intro Cogn. Neuro-Psychology,52,q,circle,1385,square,square,right,8.96256666666667,30,main
7437,428,congruent,correct,Intro Cogn. Neuro-Psychology,52,p,circle,1915,square,circle,right,8.96256666666667,31,main
7437,598,congruent,correct,Intro Cogn. Neuro-Psychology,52,q,circle,2482,square,square,left,8.96256666666667,32,main
7437,470,incongruent,correct,Intro Cogn. Neuro-Psychology,52,p,circle,1829,square,circle,left,8.96256666666667,33,main
7437,534,congruent,incorrect,Intro Cogn. Neuro-Psychology,52,q,circle,2465,square,circle,right,8.96256666666667,34,main
7437,667,congruent,incorrect,Intro Cogn. Neuro-Psychology,52,q,circle,1938,square,circle,right,8.96256666666667,35,main
7437,694,incongruent,correct,Intro Cogn. Neuro-Psychology,52,q,circle,1507,square,square,right,8.96256666666667,36,main
7437,509,congruent,incorrect,Intro Cogn. Neuro-Psychology,52,q,circle,2462,square,circle,right,8.96256666666667,37,main
7437,795,incongruent,correct,Intro Cogn. Neuro-Psychology,52,p,circle,2560,square,circle,left,8.96256666666667,38,main
7437,467,congruent,correct,Intro Cogn. Neuro-Psychology,52,q,circle,1517,square,square,left,8.96256666666667,39,main
7437,857,congruent,correct,Intro Cogn. Neuro-Psychology,52,q,circle,2561,square,square,left,8.96256666666667,40,main
7437,518,incongruent,correct,Intro Cogn. Neuro-Psychology,52,q,circle,1869,square,square,right,8.96256666666667,41,main
7437,739,incongruent,correct,Intro Cogn. Neuro-Psychology,52,q,circle,2292,square,square,right,8.96256666666667,42,main
7437,553,incongruent,correct,Intro Cogn. Neuro-Psychology,52,q,circle,1881,square,square,right,8.96256666666667,43,main
7437,579,congruent,correct,Intro Cogn. Neuro-Psychology,52,q,circle,1353,square,square,left,8.96256666666667,44,main
7437,528,incongruent,correct,Intro Cogn. Neuro-Psychology,52,q,circle,1697,square,square,right,8.96256666666667,45,main
7437,501,congruent,correct,Intro Cogn. Neuro-Psychology,52,p,circle,1315,square,circle,right,8.96256666666667,46,main
7437,484,incongruent,correct,Intro Cogn. Neuro-Psychology,52,q,circle,1912,square,square,right,8.96256666666667,47,main
7437,422,congruent,correct,Intro Cogn. Neuro-Psychology,52,p,circle,2282,square,circle,right,8.96256666666667,48,main
7437,421,congruent,correct,Intro Cogn. Neuro-Psychology,52,p,circle,1306,square,circle,right,8.96256666666667,49,main
7437,515,congruent,correct,Intro Cogn. Neuro-Psychology,52,q,circle,2689,square,square,left,8.96256666666667,50,main
7437,319,congruent,correct,Intro Cogn. Neuro-Psychology,52,p,circle,1911,square,circle,right,8.96256666666667,51,main
7437,412,congruent,correct,Intro Cogn. Neuro-Psychology,52,q,circle,1410,square,square,left,8.96256666666667,52,main
7437,439,incongruent,correct,Intro Cogn. Neuro-Psychology,52,p,circle,1977,square,circle,left,8.96256666666667,53,main
7437,470,congruent,correct,Intro Cogn. Neuro-Psychology,52,q,circle,1465,square,square,left,8.96256666666667,54,main
7437,538,incongruent,correct,Intro Cogn. Neuro-Psychology,52,q,circle,2275,square,square,right,8.96256666666667,55,main
7437,469,congruent,correct,Intro Cogn. Neuro-Psychology,52,p,circle,2211,square,circle,right,8.96256666666667,56,main
7437,516,incongruent,correct,Intro Cogn. Neuro-Psychology,52,p,circle,1514,square,circle,left,8.96256666666667,57,main
7437,469,incongruent,correct,Intro Cogn. Neuro-Psychology,52,p,circle,2135,square,circle,left,8.96256666666667,58,main
7437,449,incongruent,correct,Intro Cogn. Neuro-Psychology,52,p,circle,1270,square,circle,left,8.96256666666667,59,main
7437,467,incongruent,correct,Intro Cogn. Neuro-Psychology,52,q,circle,2454,square,square,right,8.96256666666667,60,main
7437,537,incongruent,incorrect,Intro Cogn. Neuro-Psychology,52,p,circle,2325,square,square,right,8.96256666666667,61,main
7437,506,incongruent,correct,Intro Cogn. Neuro-Psychology,52,p,circle,1301,square,circle,left,8.96256666666667,62,main
7437,452,congruent,incorrect,Intro Cogn. Neuro-Psychology,52,p,circle,1779,square,square,left,8.96256666666667,63,main
7437,511,incongruent,correct,Intro Cogn. Neuro-Psychology,52,p,circle,1305,square,circle,left,8.96256666666667,64,main
7437,505,incongruent,correct,Intro Cogn. Neuro-Psychology,52,p,circle,1446,square,circle,left,8.96256666666667,65,main
7437,601,incongruent,correct,Intro Cogn. Neuro-Psychology,52,p,circle,2015,square,circle,left,8.96256666666667,66,main
7437,446,incongruent,correct,Intro Cogn. Neuro-Psychology,52,p,circle,1795,square,circle,left,8.96256666666667,67,main
7437,419,congruent,correct,Intro Cogn. Neuro-Psychology,52,q,circle,1818,square,square,left,8.96256666666667,68,main
7437,462,congruent,correct,Intro Cogn. Neuro-Psychology,52,q,circle,1271,square,square,left,8.96256666666667,69,main
7437,439,congruent,correct,Intro Cogn. Neuro-Psychology,52,q,circle,1945,square,square,left,8.96256666666667,70,main
7437,345,congruent,correct,Intro Cogn. Neuro-Psychology,52,p,circle,2184,square,circle,right,8.96256666666667,71,main
7437,738,incongruent,correct,Intro Cogn. Neuro-Psychology,52,p,circle,1894,square,circle,left,8.96256666666667,72,main
7437,461,incongruent,correct,Intro Cogn. Neuro-Psychology,52,p,circle,1983,square,circle,left,8.96256666666667,73,main
7437,356,incongruent,correct,Intro Cogn. Neuro-Psychology,52,q,circle,2059,square,square,right,8.96256666666667,74,main
7437,502,incongruent,correct,Intro Cogn. Neuro-Psychology,52,q,circle,1256,square,square,right,8.96256666666667,75,main
7437,442,congruent,incorrect,Intro Cogn. Neuro-Psychology,52,q,circle,1529,square,circle,right,8.96256666666667,76,main
7437,736,incongruent,correct,Intro Cogn. Neuro-Psychology,52,p,circle,1726,square,circle,left,8.96256666666667,77,main
7437,978,congruent,correct,Intro Cogn. Neuro-Psychology,52,q,circle,2446,square,square,left,8.96256666666667,78,main
7437,576,incongruent,correct,Intro Cogn. Neuro-Psychology,52,p,circle,1809,square,circle,left,8.96256666666667,79,main
7437,673,congruent,correct,Intro Cogn. Neuro-Psychology,52,q,circle,2643,square,square,left,8.96256666666667,80,main
7437,621,incongruent,correct,Intro Cogn. Neuro-Psychology,52,q,circle,1720,square,square,right,8.96256666666667,81,main
7437,479,congruent,correct,Intro Cogn. Neuro-Psychology,52,q,circle,1875,square,square,left,8.96256666666667,82,main
7437,425,incongruent,correct,Intro Cogn. Neuro-Psychology,52,p,circle,2630,square,circle,left,8.96256666666667,83,main
7437,479,incongruent,correct,Intro Cogn. Neuro-Psychology,52,p,circle,2552,square,circle,left,8.96256666666667,84,main
7437,493,incongruent,correct,Intro Cogn. Neuro-Psychology,52,q,circle,2060,square,square,right,8.96256666666667,85,main
7437,557,congruent,incorrect,Intro Cogn. Neuro-Psychology,52,q,circle,1585,square,circle,right,8.96256666666667,86,main
7437,579,incongruent,correct,Intro Cogn. Neuro-Psychology,52,q,circle,2004,square,square,right,8.96256666666667,87,main
7437,747,congruent,correct,Intro Cogn. Neuro-Psychology,52,q,circle,1438,square,square,left,8.96256666666667,88,main
7437,512,incongruent,correct,Intro Cogn. Neuro-Psychology,52,q,circle,1820,square,square,right,8.96256666666667,89,main
7437,515,congruent,correct,Intro Cogn. Neuro-Psychology,52,p,circle,2583,square,circle,right,8.96256666666667,90,main
7437,745,congruent,correct,Intro Cogn. Neuro-Psychology,52,q,circle,2408,square,square,left,8.96256666666667,91,main
7437,511,congruent,correct,Intro Cogn. Neuro-Psychology,52,p,circle,1322,square,circle,right,8.96256666666667,92,main
7437,658,congruent,correct,Intro Cogn. Neuro-Psychology,52,p,circle,2590,square,circle,right,8.96256666666667,93,main
7437,547,congruent,correct,Intro Cogn. Neuro-Psychology,52,p,circle,1798,square,circle,right,8.96256666666667,94,main
7437,712,incongruent,correct,Intro Cogn. Neuro-Psychology,52,p,circle,2263,square,circle,left,8.96256666666667,95,main
7437,623,incongruent,correct,Intro Cogn. Neuro-Psychology,52,q,circle,1839,square,square,right,8.96256666666667,96,main
7437,530,incongruent,correct,Intro Cogn. Neuro-Psychology,52,q,circle,1966,square,square,right,8.96256666666667,97,main
7437,500,congruent,correct,Intro Cogn. Neuro-Psychology,52,p,circle,2291,square,circle,right,8.96256666666667,98,main
7437,548,incongruent,correct,Intro Cogn. Neuro-Psychology,52,q,circle,1572,square,square,right,8.96256666666667,99,main
7437,483,incongruent,correct,Intro Cogn. Neuro-Psychology,52,p,circle,1355,square,circle,left,8.96256666666667,100,main
7438,12496,incongruent,correct,Intro Cogn. Neuro-Psychology,52,q,circle,2218,square,square,right,6.82028333333333,1,practice
7438,919,congruent,correct,Intro Cogn. Neuro-Psychology,52,q,circle,1399,square,square,left,6.82028333333333,2,practice
7438,2186,incongruent,incorrect,Intro Cogn. Neuro-Psychology,52,q,circle,2186,square,circle,left,6.82028333333333,3,practice
7438,1106,congruent,correct,Intro Cogn. Neuro-Psychology,52,q,circle,1547,square,square,left,6.82028333333333,4,practice
7438,649,congruent,correct,Intro Cogn. Neuro-Psychology,52,p,circle,1458,square,circle,right,6.82028333333333,5,practice
7438,639,congruent,correct,Intro Cogn. Neuro-Psychology,52,q,circle,2160,square,square,left,6.82028333333333,6,practice
7438,561,incongruent,incorrect,Intro Cogn. Neuro-Psychology,52,q,circle,1347,square,circle,left,6.82028333333333,7,practice
7438,915,incongruent,correct,Intro Cogn. Neuro-Psychology,52,q,circle,2407,square,square,right,6.82028333333333,8,practice
7438,853,incongruent,correct,Intro Cogn. Neuro-Psychology,52,q,circle,2241,square,square,right,6.82028333333333,9,practice
7438,693,congruent,correct,Intro Cogn. Neuro-Psychology,52,p,circle,1668,square,circle,right,6.82028333333333,10,practice
7438,572,congruent,correct,Intro Cogn. Neuro-Psychology,52,q,circle,1523,square,square,left,6.82028333333333,11,practice
7438,503,congruent,correct,Intro Cogn. Neuro-Psychology,52,p,circle,2104,square,circle,right,6.82028333333333,12,practice
7438,547,incongruent,correct,Intro Cogn. Neuro-Psychology,52,p,circle,2581,square,circle,left,6.82028333333333,13,practice
7438,528,incongruent,correct,Intro Cogn. Neuro-Psychology,52,p,circle,2146,square,circle,left,6.82028333333333,14,practice
7438,596,congruent,correct,Intro Cogn. Neuro-Psychology,52,q,circle,1953,square,square,left,6.82028333333333,15,practice
7438,520,congruent,correct,Intro Cogn. Neuro-Psychology,52,q,circle,2428,square,square,left,6.82028333333333,16,practice
7438,460,congruent,correct,Intro Cogn. Neuro-Psychology,52,q,circle,2241,square,square,left,6.82028333333333,17,practice
7438,731,incongruent,correct,Intro Cogn. Neuro-Psychology,52,q,circle,2488,square,square,right,6.82028333333333,18,practice
7438,466,incongruent,correct,Intro Cogn. Neuro-Psychology,52,q,circle,1701,square,square,right,6.82028333333333,19,practice
7438,563,incongruent,correct,Intro Cogn. Neuro-Psychology,52,q,circle,2198,square,square,right,6.82028333333333,20,practice
7438,1539,incongruent,correct,Intro Cogn. Neuro-Psychology,52,q,circle,1250,square,square,right,6.82028333333333,1,main
7438,641,incongruent,correct,Intro Cogn. Neuro-Psychology,52,p,circle,2528,square,circle,left,6.82028333333333,2,main
7438,555,incongruent,correct,Intro Cogn. Neuro-Psychology,52,q,circle,2637,square,square,right,6.82028333333333,3,main
7438,1079,incongruent,correct,Intro Cogn. Neuro-Psychology,52,p,circle,1839,square,circle,left,6.82028333333333,4,main
7438,740,congruent,correct,Intro Cogn. Neuro-Psychology,52,q,circle,2094,square,square,left,6.82028333333333,5,main
7438,575,incongruent,correct,Intro Cogn. Neuro-Psychology,52,q,circle,2620,square,square,right,6.82028333333333,6,main
7438,356,congruent,correct,Intro Cogn. Neuro-Psychology,52,q,circle,1847,square,square,left,6.82028333333333,7,main
7438,617,incongruent,correct,Intro Cogn. Neuro-Psychology,52,q,circle,2497,square,square,right,6.82028333333333,8,main
7438,732,incongruent,correct,Intro Cogn. Neuro-Psychology,52,p,circle,1719,square,circle,left,6.82028333333333,9,main
7438,441,congruent,correct,Intro Cogn. Neuro-Psychology,52,q,circle,2411,square,square,left,6.82028333333333,10,main
7438,1052,incongruent,correct,Intro Cogn. Neuro-Psychology,52,q,circle,1339,square,square,right,6.82028333333333,11,main
7438,424,congruent,correct,Intro Cogn. Neuro-Psychology,52,q,circle,2267,square,square,left,6.82028333333333,12,main
7438,607,incongruent,correct,Intro Cogn. Neuro-Psychology,52,q,circle,2171,square,square,right,6.82028333333333,13,main
7438,554,congruent,correct,Intro Cogn. Neuro-Psychology,52,p,circle,1453,square,circle,right,6.82028333333333,14,main
7438,563,incongruent,correct,Intro Cogn. Neuro-Psychology,52,q,circle,2410,square,square,right,6.82028333333333,15,main
7438,583,incongruent,correct,Intro Cogn. Neuro-Psychology,52,p,circle,2480,square,circle,left,6.82028333333333,16,main
7438,660,incongruent,correct,Intro Cogn. Neuro-Psychology,52,q,circle,2272,square,square,right,6.82028333333333,17,main
7438,488,incongruent,correct,Intro Cogn. Neuro-Psychology,52,p,circle,1733,square,circle,left,6.82028333333333,18,main
7438,792,congruent,correct,Intro Cogn. Neuro-Psychology,52,p,circle,2094,square,circle,right,6.82028333333333,19,main
7438,532,congruent,correct,Intro Cogn. Neuro-Psychology,52,p,circle,1988,square,circle,right,6.82028333333333,20,main
7438,714,incongruent,correct,Intro Cogn. Neuro-Psychology,52,q,circle,2594,square,square,right,6.82028333333333,21,main
7438,515,incongruent,correct,Intro Cogn. Neuro-Psychology,52,p,circle,2538,square,circle,left,6.82028333333333,22,main
7438,551,congruent,correct,Intro Cogn. Neuro-Psychology,52,p,circle,1300,square,circle,right,6.82028333333333,23,main
7438,632,congruent,correct,Intro Cogn. Neuro-Psychology,52,q,circle,2437,square,square,left,6.82028333333333,24,main
7438,539,incongruent,correct,Intro Cogn. Neuro-Psychology,52,p,circle,2686,square,circle,left,6.82028333333333,25,main
7438,605,congruent,correct,Intro Cogn. Neuro-Psychology,52,q,circle,2120,square,square,left,6.82028333333333,26,main
7438,973,congruent,correct,Intro Cogn. Neuro-Psychology,52,q,circle,1987,square,square,left,6.82028333333333,27,main
7438,544,incongruent,correct,Intro Cogn. Neuro-Psychology,52,q,circle,1772,square,square,right,6.82028333333333,28,main
7438,632,congruent,correct,Intro Cogn. Neuro-Psychology,52,q,circle,1821,square,square,left,6.82028333333333,29,main
7438,524,incongruent,correct,Intro Cogn. Neuro-Psychology,52,q,circle,2073,square,square,right,6.82028333333333,30,main
7438,344,congruent,correct,Intro Cogn. Neuro-Psychology,52,q,circle,2220,square,square,left,6.82028333333333,31,main
7438,418,incongruent,correct,Intro Cogn. Neuro-Psychology,52,q,circle,1435,square,square,right,6.82028333333333,32,main
7438,584,incongruent,correct,Intro Cogn. Neuro-Psychology,52,p,circle,2060,square,circle,left,6.82028333333333,33,main
7438,547,congruent,correct,Intro Cogn. Neuro-Psychology,52,q,circle,1805,square,square,left,6.82028333333333,34,main
7438,374,congruent,correct,Intro Cogn. Neuro-Psychology,52,p,circle,2185,square,circle,right,6.82028333333333,35,main
7438,452,congruent,correct,Intro Cogn. Neuro-Psychology,52,q,circle,2112,square,square,left,6.82028333333333,36,main
7438,545,incongruent,correct,Intro Cogn. Neuro-Psychology,52,p,circle,1740,square,circle,left,6.82028333333333,37,main
7438,523,incongruent,correct,Intro Cogn. Neuro-Psychology,52,p,circle,1440,square,circle,left,6.82028333333333,38,main
7438,584,incongruent,correct,Intro Cogn. Neuro-Psychology,52,p,circle,1389,square,circle,left,6.82028333333333,39,main
7438,477,congruent,correct,Intro Cogn. Neuro-Psychology,52,q,circle,2147,square,square,left,6.82028333333333,40,main
7438,1330,congruent,correct,Intro Cogn. Neuro-Psychology,52,q,circle,1437,square,square,left,6.82028333333333,41,main
7438,389,congruent,correct,Intro Cogn. Neuro-Psychology,52,p,circle,1695,square,circle,right,6.82028333333333,42,main
7438,601,incongruent,correct,Intro Cogn. Neuro-Psychology,52,p,circle,2049,square,circle,left,6.82028333333333,43,main
7438,575,congruent,correct,Intro Cogn. Neuro-Psychology,52,q,circle,1620,square,square,left,6.82028333333333,44,main
7438,772,congruent,correct,Intro Cogn. Neuro-Psychology,52,q,circle,1850,square,square,left,6.82028333333333,45,main
7438,546,congruent,correct,Intro Cogn. Neuro-Psychology,52,q,circle,1997,square,square,left,6.82028333333333,46,main
7438,634,incongruent,correct,Intro Cogn. Neuro-Psychology,52,q,circle,2198,square,square,right,6.82028333333333,47,main
7438,515,incongruent,correct,Intro Cogn. Neuro-Psychology,52,p,circle,1339,square,circle,left,6.82028333333333,48,main
7438,572,congruent,correct,Intro Cogn. Neuro-Psychology,52,p,circle,2263,square,circle,right,6.82028333333333,49,main
7438,489,congruent,correct,Intro Cogn. Neuro-Psychology,52,p,circle,1566,square,circle,right,6.82028333333333,50,main
7438,434,congruent,correct,Intro Cogn. Neuro-Psychology,52,p,circle,1202,square,circle,right,6.82028333333333,51,main
7438,463,congruent,correct,Intro Cogn. Neuro-Psychology,52,p,circle,2368,square,circle,right,6.82028333333333,52,main
7438,601,incongruent,correct,Intro Cogn. Neuro-Psychology,52,q,circle,1551,square,square,right,6.82028333333333,53,main
7438,475,incongruent,correct,Intro Cogn. Neuro-Psychology,52,q,circle,1731,square,square,right,6.82028333333333,54,main
7438,656,congruent,correct,Intro Cogn. Neuro-Psychology,52,q,circle,1424,square,square,left,6.82028333333333,55,main
7438,457,congruent,correct,Intro Cogn. Neuro-Psychology,52,q,circle,2583,square,square,left,6.82028333333333,56,main
7438,395,congruent,correct,Intro Cogn. Neuro-Psychology,52,q,circle,1912,square,square,left,6.82028333333333,57,main
7438,490,congruent,correct,Intro Cogn. Neuro-Psychology,52,q,circle,2453,square,square,left,6.82028333333333,58,main
7438,561,incongruent,correct,Intro Cogn. Neuro-Psychology,52,q,circle,2147,square,square,right,6.82028333333333,59,main
7438,380,congruent,correct,Intro Cogn. Neuro-Psychology,52,q,circle,1779,square,square,left,6.82028333333333,60,main
7438,537,congruent,correct,Intro Cogn. Neuro-Psychology,52,p,circle,1456,square,circle,right,6.82028333333333,61,main
7438,992,incongruent,correct,Intro Cogn. Neuro-Psychology,52,q,circle,2660,square,square,right,6.82028333333333,62,main
7438,576,congruent,correct,Intro Cogn. Neuro-Psychology,52,p,circle,2486,square,circle,right,6.82028333333333,63,main
7438,734,incongruent,correct,Intro Cogn. Neuro-Psychology,52,p,circle,2588,square,circle,left,6.82028333333333,64,main
7438,532,incongruent,correct,Intro Cogn. Neuro-Psychology,52,q,circle,1774,square,square,right,6.82028333333333,65,main
7438,710,congruent,correct,Intro Cogn. Neuro-Psychology,52,q,circle,1834,square,square,left,6.82028333333333,66,main
7438,471,congruent,correct,Intro Cogn. Neuro-Psychology,52,p,circle,2290,square,circle,right,6.82028333333333,67,main
7438,473,congruent,correct,Intro Cogn. Neuro-Psychology,52,p,circle,1513,square,circle,right,6.82028333333333,68,main
7438,466,congruent,correct,Intro Cogn. Neuro-Psychology,52,p,circle,2197,square,circle,right,6.82028333333333,69,main
7438,428,congruent,correct,Intro Cogn. Neuro-Psychology,52,q,circle,1274,square,square,left,6.82028333333333,70,main
7438,512,incongruent,correct,Intro Cogn. Neuro-Psychology,52,p,circle,2371,square,circle,left,6.82028333333333,71,main
7438,427,incongruent,correct,Intro Cogn. Neuro-Psychology,52,q,circle,2162,square,square,right,6.82028333333333,72,main
7438,592,congruent,correct,Intro Cogn. Neuro-Psychology,52,q,circle,2634,square,square,left,6.82028333333333,73,main
7438,451,congruent,correct,Intro Cogn. Neuro-Psychology,52,q,circle,2103,square,square,left,6.82028333333333,74,main
7438,338,congruent,correct,Intro Cogn. Neuro-Psychology,52,q,circle,2419,square,square,left,6.82028333333333,75,main
7438,382,congruent,correct,Intro Cogn. Neuro-Psychology,52,q,circle,1246,square,square,left,6.82028333333333,76,main
7438,283,incongruent,incorrect,Intro Cogn. Neuro-Psychology,52,q,circle,1406,square,circle,left,6.82028333333333,77,main
7438,515,incongruent,correct,Intro Cogn. Neuro-Psychology,52,q,circle,2657,square,square,right,6.82028333333333,78,main
7438,649,congruent,correct,Intro Cogn. Neuro-Psychology,52,q,circle,1645,square,square,left,6.82028333333333,79,main
7438,385,congruent,correct,Intro Cogn. Neuro-Psychology,52,p,circle,2299,square,circle,right,6.82028333333333,80,main
7438,523,incongruent,correct,Intro Cogn. Neuro-Psychology,52,p,circle,1322,square,circle,left,6.82028333333333,81,main
7438,433,incongruent,correct,Intro Cogn. Neuro-Psychology,52,q,circle,2041,square,square,right,6.82028333333333,82,main
7438,641,congruent,correct,Intro Cogn. Neuro-Psychology,52,p,circle,1464,square,circle,right,6.82028333333333,83,main
7438,856,congruent,correct,Intro Cogn. Neuro-Psychology,52,q,circle,2535,square,square,left,6.82028333333333,84,main
7438,931,congruent,correct,Intro Cogn. Neuro-Psychology,52,q,circle,2481,square,square,left,6.82028333333333,85,main
7438,655,incongruent,correct,Intro Cogn. Neuro-Psychology,52,q,circle,1493,square,square,right,6.82028333333333,86,main
7438,534,congruent,correct,Intro Cogn. Neuro-Psychology,52,p,circle,2553,square,circle,right,6.82028333333333,87,main
7438,504,congruent,correct,Intro Cogn. Neuro-Psychology,52,q,circle,1777,square,square,left,6.82028333333333,88,main
7438,518,congruent,correct,Intro Cogn. Neuro-Psychology,52,p,circle,1331,square,circle,right,6.82028333333333,89,main
7438,360,congruent,correct,Intro Cogn. Neuro-Psychology,52,q,circle,2106,square,square,left,6.82028333333333,90,main
7438,556,incongruent,correct,Intro Cogn. Neuro-Psychology,52,q,circle,2182,square,square,right,6.82028333333333,91,main
7438,479,incongruent,correct,Intro Cogn. Neuro-Psychology,52,q,circle,1225,square,square,right,6.82028333333333,92,main
7438,488,congruent,correct,Intro Cogn. Neuro-Psychology,52,p,circle,1843,square,circle,right,6.82028333333333,93,main
7438,608,incongruent,correct,Intro Cogn. Neuro-Psychology,52,q,circle,2446,square,square,right,6.82028333333333,94,main
7438,536,incongruent,correct,Intro Cogn. Neuro-Psychology,52,q,circle,1987,square,square,right,6.82028333333333,95,main
7438,442,incongruent,correct,Intro Cogn. Neuro-Psychology,52,q,circle,1777,square,square,right,6.82028333333333,96,main
7438,399,congruent,correct,Intro Cogn. Neuro-Psychology,52,q,circle,2380,square,square,left,6.82028333333333,97,main
7438,578,incongruent,correct,Intro Cogn. Neuro-Psychology,52,q,circle,2664,square,square,right,6.82028333333333,98,main
7438,418,incongruent,correct,Intro Cogn. Neuro-Psychology,52,q,circle,1953,square,square,right,6.82028333333333,99,main
7438,651,incongruent,correct,Intro Cogn. Neuro-Psychology,52,p,circle,1930,square,circle,left,6.82028333333333,100,main
7439,11683,congruent,correct,Experimental Psych Lab,52,p,square,2281,circle,square,right,6.12073333333333,1,practice
7439,991,incongruent,correct,Experimental Psych Lab,52,q,square,2698,circle,circle,right,6.12073333333333,2,practice
7439,341,incongruent,correct,Experimental Psych Lab,52,p,square,2602,circle,square,left,6.12073333333333,3,practice
7439,393,congruent,correct,Experimental Psych Lab,52,q,square,2539,circle,circle,left,6.12073333333333,4,practice
7439,344,incongruent,incorrect,Experimental Psych Lab,52,p,square,1704,circle,circle,right,6.12073333333333,5,practice
7439,709,incongruent,correct,Experimental Psych Lab,52,p,square,1877,circle,square,left,6.12073333333333,6,practice
7439,591,incongruent,correct,Experimental Psych Lab,52,p,square,2226,circle,square,left,6.12073333333333,7,practice
7439,516,congruent,correct,Experimental Psych Lab,52,p,square,1840,circle,square,right,6.12073333333333,8,practice
7439,518,incongruent,correct,Experimental Psych Lab,52,q,square,1796,circle,circle,right,6.12073333333333,9,practice
7439,499,congruent,correct,Experimental Psych Lab,52,p,square,1947,circle,square,right,6.12073333333333,10,practice
7439,375,congruent,correct,Experimental Psych Lab,52,q,square,2143,circle,circle,left,6.12073333333333,11,practice
7439,507,congruent,correct,Experimental Psych Lab,52,p,square,2296,circle,square,right,6.12073333333333,12,practice
7439,419,congruent,correct,Experimental Psych Lab,52,p,square,1328,circle,square,right,6.12073333333333,13,practice
7439,719,incongruent,correct,Experimental Psych Lab,52,q,square,2345,circle,circle,right,6.12073333333333,14,practice
7439,472,incongruent,correct,Experimental Psych Lab,52,q,square,1741,circle,circle,right,6.12073333333333,15,practice
